File: data/DSC/501023_4.csv
[Measurement conditions]
Sample identification,501203_4
Comment,
Anode material,Cu
K-Alpha1 wavelength,1.5406
K-Alpha2 wavelength,1.54443
Ratio K-Alpha2/K-Alpha1,0.500
Divergence slit,Fixed,0.38mm
Monochromator used,NO
Generator voltage, 40
Tube current, 15
File date and time,02/Apr/2025 11:05
Unit cell,
h k l, 0 0 0
Scan axis,Gonio
Scan range,5.002,49.9999
Scan step size,0.0108664
No. of points, 4141
Scan type,CONTINUOUS
Time per step,23.970
[Scan points]
Angle, TimePerStep, Intensity, ESD
5.00743, 23.970, 1478.0, 38.4448
5.04003, 23.970, 1528.0, 39.0896
5.07263, 23.970, 1492.0, 38.6264
5.10523, 23.970, 1522.0, 39.0128
5.13783, 23.970, 1551.0, 39.3827
5.17043, 23.970, 1521.0, 39.0000
5.20303, 23.970, 1570.0, 39.6232
5.23563, 23.970, 1493.0, 38.6394
5.26823, 23.970, 1563.0, 39.5348
5.30083, 23.970, 1548.0, 39.3446
5.33343, 23.970, 1588.0, 39.8497
5.36603, 23.970, 1647.0, 40.5832
5.39863, 23.970, 1596.0, 39.9500
5.43122, 23.970, 1544.0, 39.2938
5.46382, 23.970, 1599.0, 39.9875
5.49642, 23.970, 1611.0, 40.1373
5.52902, 23.970, 1607.0, 40.0874
5.56162, 23.970, 1679.0, 40.9756
5.59422, 23.970, 1628.0, 40.3485
5.62682, 23.970, 1555.0, 39.4335
5.65942, 23.970, 1602.0, 40.0250
5.69202, 23.970, 1680.0, 40.9878
5.72462, 23.970, 1803.0, 42.4617
5.75722, 23.970, 1607.0, 40.0874
5.78982, 23.970, 1695.0, 41.1704
5.82242, 23.970, 1574.0, 39.6737
5.85502, 23.970, 1713.0, 41.3884
5.88761, 23.970, 1623.0, 40.2865
5.92021, 23.970, 1659.0, 40.7308
5.95281, 23.970, 1674.0, 40.9145
5.98541, 23.970, 1645.0, 40.5586
6.01801, 23.970, 1719.0, 41.4608
6.05061, 23.970, 1766.0, 42.0238
6.08321, 23.970, 1670.0, 40.8656
6.11581, 23.970, 1643.0, 40.5339
6.14841, 23.970, 1767.0, 42.0357
6.18101, 23.970, 1710.0, 41.3521
6.21361, 23.970, 1726.0, 41.5452
6.24621, 23.970, 1670.0, 40.8656
6.27881, 23.970, 1726.0, 41.5452
6.31141, 23.970, 1646.0, 40.5709
6.34401, 23.970, 1721.0, 41.4849
6.3766, 23.970, 1685.0, 41.0488
6.4092, 23.970, 1775.0, 42.1307
6.4418, 23.970, 1720.0, 41.4729
6.4744, 23.970, 1797.0, 42.3910
6.507, 23.970, 1744.0, 41.7612
6.5396, 23.970, 1780.0, 42.1900
6.5722, 23.970, 1786.0, 42.2611
6.6048, 23.970, 1827.0, 42.7434
6.6374, 23.970, 1728.0, 41.5692
6.67, 23.970, 1719.0, 41.4608
6.7026, 23.970, 1727.0, 41.5572
6.7352, 23.970, 1753.0, 41.8688
6.7678, 23.970, 1767.0, 42.0357
6.8004, 23.970, 1736.0, 41.6653
6.833, 23.970, 1802.0, 42.4500
6.86559, 23.970, 1749.0, 41.8210
6.89819, 23.970, 1736.0, 41.6653
6.93079, 23.970, 1740.0, 41.7133
6.96339, 23.970, 1787.0, 42.2729
6.99599, 23.970, 1778.0, 42.1663
7.02859, 23.970, 1819.0, 42.6497
7.06119, 23.970, 1808.0, 42.5206
7.09379, 23.970, 1848.0, 42.9884
7.12639, 23.970, 1858.0, 43.1045
7.15899, 23.970, 1775.0, 42.1307
7.19159, 23.970, 1839.0, 42.8836
7.22419, 23.970, 1836.0, 42.8486
7.25679, 23.970, 1768.0, 42.0476
7.28939, 23.970, 1781.0, 42.2019
7.32198, 23.970, 1817.0, 42.6263
7.35458, 23.970, 1902.0, 43.6119
7.38718, 23.970, 1793.0, 42.3438
7.41978, 23.970, 1775.0, 42.1307
7.45238, 23.970, 1806.0, 42.4971
7.48498, 23.970, 1852.0, 43.0349
7.51758, 23.970, 1764.0, 42.0000
7.55018, 23.970, 1801.0, 42.4382
7.58278, 23.970, 1721.0, 41.4849
7.61538, 23.970, 1848.0, 42.9884
7.64798, 23.970, 1851.0, 43.0232
7.68058, 23.970, 1772.0, 42.0951
7.71318, 23.970, 1770.0, 42.0714
7.74578, 23.970, 1819.0, 42.6497
7.77838, 23.970, 1807.0, 42.5088
7.81097, 23.970, 1882.0, 43.3820
7.84357, 23.970, 1787.0, 42.2729
7.87617, 23.970, 1813.0, 42.5793
7.90877, 23.970, 1771.0, 42.0833
7.94137, 23.970, 1923.0, 43.8520
7.97397, 23.970, 1802.0, 42.4500
8.00657, 23.970, 1753.0, 41.8688
8.03917, 23.970, 1795.0, 42.3674
8.07177, 23.970, 1747.0, 41.7971
8.10437, 23.970, 1765.0, 42.0119
8.13697, 23.970, 1739.0, 41.7013
8.16957, 23.970, 1830.0, 42.7785
8.20217, 23.970, 1885.0, 43.4166
8.23477, 23.970, 1847.0, 42.9767
8.26737, 23.970, 1877.0, 43.3244
8.29996, 23.970, 1822.0, 42.6849
8.33256, 23.970, 1794.0, 42.3556
8.36516, 23.970, 1864.0, 43.1741
8.39776, 23.970, 1865.0, 43.1856
8.43036, 23.970, 1786.0, 42.2611
8.46296, 23.970, 1798.0, 42.4028
8.49556, 23.970, 1816.0, 42.6146
8.52816, 23.970, 1875.0, 43.3013
8.56076, 23.970, 1861.0, 43.1393
8.59336, 23.970, 1808.0, 42.5206
8.62596, 23.970, 1807.0, 42.5088
8.65856, 23.970, 1819.0, 42.6497
8.69116, 23.970, 1769.0, 42.0595
8.72376, 23.970, 1820.0, 42.6615
8.75636, 23.970, 1834.0, 42.8252
8.78895, 23.970, 1835.0, 42.8369
8.82155, 23.970, 1840.0, 42.8952
8.85415, 23.970, 1732.0, 41.6173
8.88675, 23.970, 1910.0, 43.7035
8.91935, 23.970, 1816.0, 42.6146
8.95195, 23.970, 1739.0, 41.7013
8.98455, 23.970, 1802.0, 42.4500
9.01715, 23.970, 1852.0, 43.0349
9.04975, 23.970, 1779.0, 42.1782
9.08235, 23.970, 1778.0, 42.1663
9.11495, 23.970, 1786.0, 42.2611
9.14755, 23.970, 1866.0, 43.1972
9.18015, 23.970, 1754.0, 41.8808
9.21275, 23.970, 1816.0, 42.6146
9.24534, 23.970, 1768.0, 42.0476
9.27794, 23.970, 1826.0, 42.7317
9.31054, 23.970, 1794.0, 42.3556
9.34314, 23.970, 1789.0, 42.2966
9.37574, 23.970, 1721.0, 41.4849
9.40834, 23.970, 1912.0, 43.7264
9.44094, 23.970, 1863.0, 43.1625
9.47354, 23.970, 1890.0, 43.4741
9.50614, 23.970, 1794.0, 42.3556
9.53874, 23.970, 1850.0, 43.0116
9.57134, 23.970, 1871.0, 43.2551
9.60394, 23.970, 1835.0, 42.8369
9.63654, 23.970, 1896.0, 43.5431
9.66914, 23.970, 1870.0, 43.2435
9.70174, 23.970, 1902.0, 43.6119
9.73433, 23.970, 1833.0, 42.8135
9.76693, 23.970, 1861.0, 43.1393
9.79953, 23.970, 1786.0, 42.2611
9.83213, 23.970, 1827.0, 42.7434
9.86473, 23.970, 1894.0, 43.5201
9.89733, 23.970, 1815.0, 42.6028
9.92993, 23.970, 1885.0, 43.4166
9.96253, 23.970, 1838.0, 42.8719
9.99513, 23.970, 1766.0, 42.0238
10.0277, 23.970, 1824.0, 42.7083
10.0603, 23.970, 1866.0, 43.1972
10.0929, 23.970, 1836.0, 42.8486
10.1255, 23.970, 1831.0, 42.7902
10.1581, 23.970, 1821.0, 42.6732
10.1907, 23.970, 1892.0, 43.4971
10.2233, 23.970, 1826.0, 42.7317
10.2559, 23.970, 1842.0, 42.9185
10.2885, 23.970, 1788.0, 42.2847
10.3211, 23.970, 1803.0, 42.4617
10.3537, 23.970, 1948.0, 44.1362
10.3863, 23.970, 1840.0, 42.8952
10.4189, 23.970, 1929.0, 43.9204
10.4515, 23.970, 1871.0, 43.2551
10.4841, 23.970, 1843.0, 42.9302
10.5167, 23.970, 1718.0, 41.4488
10.5493, 23.970, 1866.0, 43.1972
10.5819, 23.970, 1862.0, 43.1509
10.6145, 23.970, 1808.0, 42.5206
10.6471, 23.970, 1897.0, 43.5546
10.6797, 23.970, 1813.0, 42.5793
10.7123, 23.970, 1829.0, 42.7668
10.7449, 23.970, 1917.0, 43.7836
10.7775, 23.970, 1900.0, 43.5890
10.8101, 23.970, 1896.0, 43.5431
10.8427, 23.970, 1807.0, 42.5088
10.8753, 23.970, 1839.0, 42.8836
10.9079, 23.970, 1852.0, 43.0349
10.9405, 23.970, 1879.0, 43.3474
10.9731, 23.970, 1890.0, 43.4741
11.0057, 23.970, 1926.0, 43.8862
11.0383, 23.970, 1908.0, 43.6807
11.0709, 23.970, 1857.0, 43.0929
11.1035, 23.970, 1879.0, 43.3474
11.1361, 23.970, 1835.0, 42.8369
11.1687, 23.970, 1888.0, 43.4511
11.2013, 23.970, 1912.0, 43.7264
11.2339, 23.970, 1834.0, 42.8252
11.2665, 23.970, 1945.0, 44.1022
11.2991, 23.970, 1875.0, 43.3013
11.3317, 23.970, 1774.0, 42.1189
11.3643, 23.970, 1817.0, 42.6263
11.3969, 23.970, 1938.0, 44.0227
11.4295, 23.970, 1787.0, 42.2729
11.4621, 23.970, 1896.0, 43.5431
11.4947, 23.970, 1940.0, 44.0454
11.5273, 23.970, 1897.0, 43.5546
11.5599, 23.970, 1887.0, 43.4396
11.5925, 23.970, 2004.0, 44.7661
11.6251, 23.970, 1871.0, 43.2551
11.6577, 23.970, 1899.0, 43.5775
11.6903, 23.970, 1943.0, 44.0795
11.7229, 23.970, 2034.0, 45.0999
11.7555, 23.970, 1958.0, 44.2493
11.7881, 23.970, 1958.0, 44.2493
11.8207, 23.970, 1967.0, 44.3509
11.8533, 23.970, 1917.0, 43.7836
11.8859, 23.970, 1951.0, 44.1701
11.9185, 23.970, 1926.0, 43.8862
11.9511, 23.970, 1946.0, 44.1135
11.9837, 23.970, 2014.0, 44.8776
12.0163, 23.970, 2021.0, 44.9555
12.0489, 23.970, 1912.0, 43.7264
12.0815, 23.970, 2060.0, 45.3872
12.1141, 23.970, 1937.0, 44.0114
12.1467, 23.970, 2103.0, 45.8585
12.1793, 23.970, 1902.0, 43.6119
12.2119, 23.970, 2008.0, 44.8107
12.2445, 23.970, 2041.0, 45.1774
12.2771, 23.970, 1992.0, 44.6318
12.3097, 23.970, 2035.0, 45.1110
12.3423, 23.970, 2066.0, 45.4533
12.3749, 23.970, 1964.0, 44.3170
12.4075, 23.970, 2028.0, 45.0333
12.4401, 23.970, 2012.0, 44.8553
12.4727, 23.970, 2082.0, 45.6289
12.5053, 23.970, 2041.0, 45.1774
12.5379, 23.970, 2045.0, 45.2217
12.5705, 23.970, 2070.0, 45.4973
12.6031, 23.970, 2151.0, 46.3789
12.6357, 23.970, 2096.0, 45.7821
12.6683, 23.970, 2043.0, 45.1996
12.7009, 23.970, 2169.0, 46.5725
12.7335, 23.970, 2083.0, 45.6399
12.7661, 23.970, 2120.0, 46.0435
12.7987, 23.970, 2082.0, 45.6289
12.8313, 23.970, 2094.0, 45.7602
12.8639, 23.970, 2061.0, 45.3982
12.8965, 23.970, 2172.0, 46.6047
12.9291, 23.970, 2212.0, 47.0319
12.9617, 23.970, 2182.0, 46.7119
12.9943, 23.970, 2193.0, 46.8295
13.0269, 23.970, 2242.0, 47.3498
13.0595, 23.970, 2128.0, 46.1303
13.0921, 23.970, 2164.0, 46.5188
13.1247, 23.970, 2122.0, 46.0652
13.1573, 23.970, 2203.0, 46.9361
13.1899, 23.970, 2224.0, 47.1593
13.2225, 23.970, 2207.0, 46.9787
13.2551, 23.970, 2195.0, 46.8508
13.2877, 23.970, 2240.0, 47.3286
13.3203, 23.970, 2235.0, 47.2758
13.3529, 23.970, 2341.0, 48.3839
13.3855, 23.970, 2308.0, 48.0416
13.4181, 23.970, 2262.0, 47.5605
13.4507, 23.970, 2266.0, 47.6025
13.4833, 23.970, 2348.0, 48.4562
13.5159, 23.970, 2316.0, 48.1248
13.5485, 23.970, 2387.0, 48.8569
13.5811, 23.970, 2310.0, 48.0625
13.6137, 23.970, 2317.0, 48.1352
13.6463, 23.970, 2274.0, 47.6865
13.6789, 23.970, 2386.0, 48.8467
13.7115, 23.970, 2455.0, 49.5480
13.7441, 23.970, 2409.0, 49.0816
13.7767, 23.970, 2468.0, 49.6790
13.8092, 23.970, 2378.0, 48.7647
13.8418, 23.970, 2440.0, 49.3964
13.8744, 23.970, 2439.0, 49.3862
13.907, 23.970, 2409.0, 49.0816
13.9396, 23.970, 2454.0, 49.5379
13.9722, 23.970, 2502.0, 50.0200
14.0048, 23.970, 2535.0, 50.3488
14.0374, 23.970, 2495.0, 49.9500
14.07, 23.970, 2592.0, 50.9117
14.1026, 23.970, 2697.0, 51.9326
14.1352, 23.970, 2472.0, 49.7192
14.1678, 23.970, 2580.0, 50.7937
14.2004, 23.970, 2634.0, 51.3225
14.233, 23.970, 2586.0, 50.8527
14.2656, 23.970, 2750.0, 52.4404
14.2982, 23.970, 2594.0, 50.9313
14.3308, 23.970, 2618.0, 51.1664
14.3634, 23.970, 2689.0, 51.8556
14.396, 23.970, 2721.0, 52.1632
14.4286, 23.970, 2710.0, 52.0577
14.4612, 23.970, 2764.0, 52.5738
14.4938, 23.970, 2733.0, 52.2781
14.5264, 23.970, 2718.0, 52.1344
14.559, 23.970, 2687.0, 51.8363
14.5916, 23.970, 2799.0, 52.9056
14.6242, 23.970, 2810.0, 53.0094
14.6568, 23.970, 2749.0, 52.4309
14.6894, 23.970, 2888.0, 53.7401
14.722, 23.970, 2839.0, 53.2823
14.7546, 23.970, 2861.0, 53.4883
14.7872, 23.970, 2814.0, 53.0471
14.8198, 23.970, 3023.0, 54.9818
14.8524, 23.970, 2940.0, 54.2218
14.885, 23.970, 2811.0, 53.0189
14.9176, 23.970, 2957.0, 54.3783
14.9502, 23.970, 3018.0, 54.9363
14.9828, 23.970, 2947.0, 54.2863
15.0154, 23.970, 2901.0, 53.8609
15.048, 23.970, 3111.0, 55.7763
15.0806, 23.970, 2955.0, 54.3599
15.1132, 23.970, 3008.0, 54.8452
15.1458, 23.970, 3153.0, 56.1516
15.1784, 23.970, 3104.0, 55.7136
15.211, 23.970, 3055.0, 55.2721
15.2436, 23.970, 3150.0, 56.1249
15.2762, 23.970, 3119.0, 55.8480
15.3088, 23.970, 3165.0, 56.2583
15.3414, 23.970, 3160.0, 56.2139
15.374, 23.970, 3276.0, 57.2364
15.4066, 23.970, 3292.0, 57.3760
15.4392, 23.970, 3342.0, 57.8100
15.4718, 23.970, 3256.0, 57.0614
15.5044, 23.970, 3310.0, 57.5326
15.537, 23.970, 3302.0, 57.4630
15.5696, 23.970, 3425.0, 58.5235
15.6022, 23.970, 3326.0, 57.6715
15.6348, 23.970, 3326.0, 57.6715
15.6674, 23.970, 3395.0, 58.2666
15.7, 23.970, 3435.0, 58.6089
15.7326, 23.970, 3547.0, 59.5567
15.7652, 23.970, 3521.0, 59.3380
15.7978, 23.970, 3417.0, 58.4551
15.8304, 23.970, 3586.0, 59.8832
15.863, 23.970, 3571.0, 59.7578
15.8956, 23.970, 3493.0, 59.1016
15.9282, 23.970, 3584.0, 59.8665
15.9608, 23.970, 3626.0, 60.2163
15.9934, 23.970, 3630.0, 60.2495
16.026, 23.970, 3645.0, 60.3738
16.0586, 23.970, 3650.0, 60.4152
16.0912, 23.970, 3535.0, 59.4559
16.1238, 23.970, 3750.0, 61.2372
16.1564, 23.970, 3810.0, 61.7252
16.189, 23.970, 3801.0, 61.6523
16.2216, 23.970, 3796.0, 61.6117
16.2542, 23.970, 3833.0, 61.9112
16.2868, 23.970, 3756.0, 61.2862
16.3194, 23.970, 3858.0, 62.1128
16.352, 23.970, 4061.0, 63.7260
16.3846, 23.970, 3963.0, 62.9524
16.4172, 23.970, 3914.0, 62.5620
16.4498, 23.970, 3897.0, 62.4260
16.4824, 23.970, 3885.0, 62.3298
16.515, 23.970, 3998.0, 63.2297
16.5476, 23.970, 4024.0, 63.4350
16.5802, 23.970, 4084.0, 63.9062
16.6128, 23.970, 4061.0, 63.7260
16.6454, 23.970, 4223.0, 64.9846
16.678, 23.970, 4182.0, 64.6684
16.7106, 23.970, 4226.0, 65.0077
16.7432, 23.970, 4216.0, 64.9307
16.7758, 23.970, 4271.0, 65.3529
16.8084, 23.970, 4402.0, 66.3476
16.841, 23.970, 4346.0, 65.9242
16.8736, 23.970, 4336.0, 65.8483
16.9062, 23.970, 4460.0, 66.7832
16.9388, 23.970, 4429.0, 66.5507
16.9714, 23.970, 4450.0, 66.7083
17.004, 23.970, 4446.0, 66.6783
17.0366, 23.970, 4438.0, 66.6183
17.0692, 23.970, 4493.0, 67.0298
17.1018, 23.970, 4435.0, 66.5958
17.1344, 23.970, 4667.0, 68.3154
17.167, 23.970, 4457.0, 66.7608
17.1996, 23.970, 4646.0, 68.1616
17.2322, 23.970, 4666.0, 68.3081
17.2648, 23.970, 4596.0, 67.7938
17.2974, 23.970, 4602.0, 67.8380
17.33, 23.970, 4785.0, 69.1737
17.3626, 23.970, 4758.0, 68.9783
17.3952, 23.970, 4731.0, 68.7823
17.4278, 23.970, 4715.0, 68.6659
17.4604, 23.970, 4838.0, 69.5557
17.493, 23.970, 4931.0, 70.2211
17.5256, 23.970, 4864.0, 69.7424
17.5582, 23.970, 4932.0, 70.2282
17.5908, 23.970, 4983.0, 70.5904
17.6234, 23.970, 4967.0, 70.4769
17.656, 23.970, 5141.0, 71.7008
17.6886, 23.970, 4934.0, 70.2424
17.7212, 23.970, 5219.0, 72.2426
17.7538, 23.970, 5190.0, 72.0417
17.7864, 23.970, 5244.0, 72.4155
17.819, 23.970, 5281.0, 72.6705
17.8516, 23.970, 5373.0, 73.3008
17.8842, 23.970, 5358.0, 73.1984
17.9168, 23.970, 5369.0, 73.2735
17.9494, 23.970, 5342.0, 73.0890
17.982, 23.970, 5551.0, 74.5050
18.0146, 23.970, 5620.0, 74.9667
18.0472, 23.970, 5582.0, 74.7128
18.0798, 23.970, 5681.0, 75.3724
18.1124, 23.970, 5876.0, 76.6551
18.145, 23.970, 5825.0, 76.3217
18.1776, 23.970, 6041.0, 77.7239
18.2102, 23.970, 6237.0, 78.9747
18.2428, 23.970, 6236.0, 78.9683
18.2754, 23.970, 6611.0, 81.3081
18.308, 23.970, 6619.0, 81.3572
18.3406, 23.970, 6999.0, 83.6600
18.3732, 23.970, 7015.0, 83.7556
18.4058, 23.970, 7467.0, 86.4118
18.4384, 23.970, 7746.0, 88.0114
18.471, 23.970, 8014.0, 89.5209
18.5036, 23.970, 8448.0, 91.9130
18.5362, 23.970, 8737.0, 93.4719
18.5688, 23.970, 9066.0, 95.2155
18.6013, 23.970, 9369.0, 96.7936
18.6339, 23.970, 9589.0, 97.9234
18.6665, 23.970, 10040.0, 100.1998
18.6991, 23.970, 10323.0, 101.6022
18.7317, 23.970, 10269.0, 101.3361
18.7643, 23.970, 10391.0, 101.9363
18.7969, 23.970, 10485.0, 102.3963
18.8295, 23.970, 10295.0, 101.4643
18.8621, 23.970, 10097.0, 100.4838
18.8947, 23.970, 9882.0, 99.4082
18.9273, 23.970, 9734.0, 98.6610
18.9599, 23.970, 9221.0, 96.0260
18.9925, 23.970, 8874.0, 94.2019
19.0251, 23.970, 8725.0, 93.4077
19.0577, 23.970, 8625.0, 92.8709
19.0903, 23.970, 8089.0, 89.9389
19.1229, 23.970, 7861.0, 88.6623
19.1555, 23.970, 7424.0, 86.1626
19.1881, 23.970, 7347.0, 85.7146
19.2207, 23.970, 7188.0, 84.7821
19.2533, 23.970, 6854.0, 82.7889
19.2859, 23.970, 6681.0, 81.7374
19.3185, 23.970, 6624.0, 81.3880
19.3511, 23.970, 6530.0, 80.8084
19.3837, 23.970, 6435.0, 80.2185
19.4163, 23.970, 6282.0, 79.2591
19.4489, 23.970, 6128.0, 78.2815
19.4815, 23.970, 5988.0, 77.3822
19.5141, 23.970, 6003.0, 77.4790
19.5467, 23.970, 5786.0, 76.0658
19.5793, 23.970, 5968.0, 77.2528
19.6119, 23.970, 5690.0, 75.4321
19.6445, 23.970, 5706.0, 75.5381
19.6771, 23.970, 5619.0, 74.9600
19.7097, 23.970, 5607.0, 74.8799
19.7423, 23.970, 5573.0, 74.6525
19.7749, 23.970, 5569.0, 74.6257
19.8075, 23.970, 5594.0, 74.7930
19.8401, 23.970, 5603.0, 74.8532
19.8727, 23.970, 5351.0, 73.1505
19.9053, 23.970, 5656.0, 75.2064
19.9379, 23.970, 5433.0, 73.7089
19.9705, 23.970, 5394.0, 73.4439
20.0031, 23.970, 5444.0, 73.7835
20.0357, 23.970, 5453.0, 73.8444
20.0683, 23.970, 5474.0, 73.9865
20.1009, 23.970, 5540.0, 74.4312
20.1335, 23.970, 5628.0, 75.0200
20.1661, 23.970, 5560.0, 74.5654
20.1987, 23.970, 5618.0, 74.9533
20.2313, 23.970, 5617.0, 74.9466
20.2639, 23.970, 5513.0, 74.2496
20.2965, 23.970, 5686.0, 75.4056
20.3291, 23.970, 5628.0, 75.0200
20.3617, 23.970, 5813.0, 76.2430
20.3943, 23.970, 5782.0, 76.0395
20.4269, 23.970, 5988.0, 77.3822
20.4595, 23.970, 5837.0, 76.4003
20.4921, 23.970, 6162.0, 78.4984
20.5247, 23.970, 6014.0, 77.5500
20.5573, 23.970, 6170.0, 78.5493
20.5899, 23.970, 6397.0, 79.9812
20.6225, 23.970, 6320.0, 79.4984
20.6551, 23.970, 6218.0, 78.8543
20.6877, 23.970, 6371.0, 79.8185
20.7203, 23.970, 6313.0, 79.4544
20.7529, 23.970, 6485.0, 80.5295
20.7855, 23.970, 6216.0, 78.8416
20.8181, 23.970, 6212.0, 78.8162
20.8507, 23.970, 6048.0, 77.7689
20.8833, 23.970, 6160.0, 78.4857
20.9159, 23.970, 6013.0, 77.5435
20.9485, 23.970, 5910.0, 76.8765
20.9811, 23.970, 5778.0, 76.0132
21.0137, 23.970, 5782.0, 76.0395
21.0463, 23.970, 5810.0, 76.2234
21.0789, 23.970, 5626.0, 75.0067
21.1115, 23.970, 5493.0, 74.1148
21.1441, 23.970, 5403.0, 73.5051
21.1767, 23.970, 5440.0, 73.7564
21.2093, 23.970, 5401.0, 73.4915
21.2419, 23.970, 5213.0, 72.2011
21.2745, 23.970, 5168.0, 71.8888
21.3071, 23.970, 4976.0, 70.5408
21.3397, 23.970, 5072.0, 71.2180
21.3723, 23.970, 4974.0, 70.5266
21.4049, 23.970, 4922.0, 70.1570
21.4375, 23.970, 4785.0, 69.1737
21.4701, 23.970, 4930.0, 70.2140
21.5027, 23.970, 4836.0, 69.5414
21.5353, 23.970, 4942.0, 70.2994
21.5679, 23.970, 4820.0, 69.4262
21.6005, 23.970, 4774.0, 69.0941
21.6331, 23.970, 4796.0, 69.2532
21.6657, 23.970, 4613.0, 67.9191
21.6983, 23.970, 4684.0, 68.4398
21.7309, 23.970, 4681.0, 68.4178
21.7635, 23.970, 4723.0, 68.7241
21.7961, 23.970, 4730.0, 68.7750
21.8287, 23.970, 4607.0, 67.8749
21.8613, 23.970, 4669.0, 68.3301
21.8939, 23.970, 4698.0, 68.5420
21.9265, 23.970, 4670.0, 68.3374
21.9591, 23.970, 4952.0, 70.3704
21.9917, 23.970, 4819.0, 69.4190
22.0243, 23.970, 5068.0, 71.1899
22.0569, 23.970, 4972.0, 70.5124
22.0895, 23.970, 5042.0, 71.0070
22.1221, 23.970, 5285.0, 72.6980
22.1547, 23.970, 5320.0, 72.9383
22.1873, 23.970, 5440.0, 73.7564
22.2199, 23.970, 5512.0, 74.2428
22.2525, 23.970, 5504.0, 74.1889
22.2851, 23.970, 5723.0, 75.6505
22.3177, 23.970, 5758.0, 75.8815
22.3503, 23.970, 5868.0, 76.6029
22.3829, 23.970, 6090.0, 78.0385
22.4155, 23.970, 6084.0, 78.0000
22.4481, 23.970, 6198.0, 78.7274
22.4807, 23.970, 6138.0, 78.3454
22.5133, 23.970, 6163.0, 78.5048
22.5459, 23.970, 6089.0, 78.0320
22.5785, 23.970, 6179.0, 78.6066
22.6111, 23.970, 6224.0, 78.8923
22.6437, 23.970, 6062.0, 77.8588
22.6763, 23.970, 6258.0, 79.1075
22.7089, 23.970, 6037.0, 77.6981
22.7415, 23.970, 6067.0, 77.8909
22.7741, 23.970, 5882.0, 76.6942
22.8067, 23.970, 5921.0, 76.9480
22.8393, 23.970, 5820.0, 76.2889
22.8719, 23.970, 5608.0, 74.8866
22.9045, 23.970, 5564.0, 74.5922
22.9371, 23.970, 5491.0, 74.1013
22.9697, 23.970, 5583.0, 74.7195
23.0023, 23.970, 5335.0, 73.0411
23.0349, 23.970, 5317.0, 72.9178
23.0675, 23.970, 5101.0, 71.4213
23.1001, 23.970, 4840.0, 69.5701
23.1327, 23.970, 4888.0, 69.9142
23.1653, 23.970, 4736.0, 68.8186
23.1979, 23.970, 4578.0, 67.6609
23.2305, 23.970, 4466.0, 66.8281
23.2631, 23.970, 4537.0, 67.3573
23.2957, 23.970, 4346.0, 65.9242
23.3283, 23.970, 4376.0, 66.1513
23.3609, 23.970, 4223.0, 64.9846
23.3934, 23.970, 4110.0, 64.1093
23.426, 23.970, 4057.0, 63.6946
23.4586, 23.970, 3948.0, 62.8331
23.4912, 23.970, 3788.0, 61.5467
23.5238, 23.970, 3746.0, 61.2046
23.5564, 23.970, 3703.0, 60.8523
23.589, 23.970, 3673.0, 60.6053
23.6216, 23.970, 3719.0, 60.9836
23.6542, 23.970, 3614.0, 60.1166
23.6868, 23.970, 3481.0, 59.0000
23.7194, 23.970, 3493.0, 59.1016
23.752, 23.970, 3385.0, 58.1808
23.7846, 23.970, 3403.0, 58.3352
23.8172, 23.970, 3383.0, 58.1636
23.8498, 23.970, 3310.0, 57.5326
23.8824, 23.970, 3239.0, 56.9122
23.915, 23.970, 3195.0, 56.5243
23.9476, 23.970, 3140.0, 56.0357
23.9802, 23.970, 3151.0, 56.1338
24.0128, 23.970, 3065.0, 55.3624
24.0454, 23.970, 3017.0, 54.9272
24.078, 23.970, 2998.0, 54.7540
24.1106, 23.970, 2969.0, 54.4885
24.1432, 23.970, 2955.0, 54.3599
24.1758, 23.970, 2889.0, 53.7494
24.2084, 23.970, 2852.0, 53.4041
24.241, 23.970, 2880.0, 53.6656
24.2736, 23.970, 2871.0, 53.5817
24.3062, 23.970, 2792.0, 52.8394
24.3388, 23.970, 2733.0, 52.2781
24.3714, 23.970, 2733.0, 52.2781
24.404, 23.970, 2750.0, 52.4404
24.4366, 23.970, 2744.0, 52.3832
24.4692, 23.970, 2674.0, 51.7107
24.5018, 23.970, 2595.0, 50.9411
24.5344, 23.970, 2603.0, 51.0196
24.567, 23.970, 2683.0, 51.7977
24.5996, 23.970, 2591.0, 50.9019
24.6322, 23.970, 2639.0, 51.3712
24.6648, 23.970, 2675.0, 51.7204
24.6974, 23.970, 2484.0, 49.8397
24.73, 23.970, 2574.0, 50.7346
24.7626, 23.970, 2572.0, 50.7149
24.7952, 23.970, 2509.0, 50.0899
24.8278, 23.970, 2505.0, 50.0500
24.8604, 23.970, 2418.0, 49.1732
24.893, 23.970, 2514.0, 50.1398
24.9256, 23.970, 2379.0, 48.7750
24.9582, 23.970, 2492.0, 49.9199
24.9908, 23.970, 2478.0, 49.7795
25.0234, 23.970, 2387.0, 48.8569
25.056, 23.970, 2453.0, 49.5278
25.0886, 23.970, 2474.0, 49.7393
25.1212, 23.970, 2491.0, 49.9099
25.1538, 23.970, 2401.0, 49.0000
25.1864, 23.970, 2515.0, 50.1498
25.219, 23.970, 2435.0, 49.3457
25.2516, 23.970, 2363.0, 48.6107
25.2842, 23.970, 2459.0, 49.5883
25.3168, 23.970, 2357.0, 48.5489
25.3494, 23.970, 2342.0, 48.3942
25.382, 23.970, 2247.0, 47.4025
25.4146, 23.970, 2378.0, 48.7647
25.4472, 23.970, 2307.0, 48.0312
25.4798, 23.970, 2299.0, 47.9479
25.5124, 23.970, 2283.0, 47.7807
25.545, 23.970, 2228.0, 47.2017
25.5776, 23.970, 2437.0, 49.3660
25.6102, 23.970, 2308.0, 48.0416
25.6428, 23.970, 2355.0, 48.5283
25.6754, 23.970, 2302.0, 47.9792
25.708, 23.970, 2249.0, 47.4236
25.7406, 23.970, 2184.0, 46.7333
25.7732, 23.970, 2265.0, 47.5920
25.8058, 23.970, 2210.0, 47.0106
25.8384, 23.970, 2259.0, 47.5289
25.871, 23.970, 2334.0, 48.3115
25.9036, 23.970, 2279.0, 47.7389
25.9362, 23.970, 2179.0, 46.6798
25.9688, 23.970, 2289.0, 47.8435
26.0014, 23.970, 2199.0, 46.8935
26.034, 23.970, 2119.0, 46.0326
26.0666, 23.970, 2194.0, 46.8402
26.0992, 23.970, 2125.0, 46.0977
26.1318, 23.970, 2147.0, 46.3357
26.1644, 23.970, 2135.0, 46.2061
26.197, 23.970, 2199.0, 46.8935
26.2296, 23.970, 2136.0, 46.2169
26.2622, 23.970, 2200.0, 46.9042
26.2948, 23.970, 2089.0, 45.7056
26.3274, 23.970, 2054.0, 45.3211
26.36, 23.970, 2084.0, 45.6508
26.3926, 23.970, 2144.0, 46.3033
26.4252, 23.970, 2141.0, 46.2709
26.4578, 23.970, 2108.0, 45.9130
26.4904, 23.970, 2119.0, 46.0326
26.523, 23.970, 2145.0, 46.3141
26.5556, 23.970, 2043.0, 45.1996
26.5882, 23.970, 2188.0, 46.7761
26.6208, 23.970, 2069.0, 45.4863
26.6534, 23.970, 2097.0, 45.7930
26.686, 23.970, 2035.0, 45.1110
26.7186, 23.970, 2095.0, 45.7712
26.7512, 23.970, 2095.0, 45.7712
26.7838, 23.970, 2069.0, 45.4863
26.8164, 23.970, 1996.0, 44.6766
26.849, 23.970, 2007.0, 44.7996
26.8816, 23.970, 1929.0, 43.9204
26.9142, 23.970, 2037.0, 45.1331
26.9468, 23.970, 2002.0, 44.7437
26.9794, 23.970, 2022.0, 44.9667
27.012, 23.970, 1922.0, 43.8406
27.0446, 23.970, 1923.0, 43.8520
27.0772, 23.970, 1969.0, 44.3734
27.1098, 23.970, 1984.0, 44.5421
27.1424, 23.970, 1946.0, 44.1135
27.175, 23.970, 1955.0, 44.2154
27.2076, 23.970, 1840.0, 42.8952
27.2402, 23.970, 1983.0, 44.5309
27.2728, 23.970, 1934.0, 43.9773
27.3054, 23.970, 1927.0, 43.8976
27.338, 23.970, 2039.0, 45.1553
27.3706, 23.970, 1912.0, 43.7264
27.4032, 23.970, 2028.0, 45.0333
27.4358, 23.970, 1953.0, 44.1928
27.4684, 23.970, 1830.0, 42.7785
27.501, 23.970, 1965.0, 44.3283
27.5336, 23.970, 1883.0, 43.3935
27.5662, 23.970, 1971.0, 44.3959
27.5988, 23.970, 1816.0, 42.6146
27.6314, 23.970, 1891.0, 43.4856
27.664, 23.970, 1922.0, 43.8406
27.6966, 23.970, 1965.0, 44.3283
27.7292, 23.970, 1936.0, 44.0000
27.7618, 23.970, 1933.0, 43.9659
27.7944, 23.970, 1993.0, 44.6430
27.827, 23.970, 1909.0, 43.6921
27.8596, 23.970, 2041.0, 45.1774
27.8922, 23.970, 2049.0, 45.2659
27.9248, 23.970, 1970.0, 44.3847
27.9574, 23.970, 2103.0, 45.8585
27.99, 23.970, 2052.0, 45.2990
28.0226, 23.970, 1994.0, 44.6542
28.0552, 23.970, 2018.0, 44.9222
28.0878, 23.970, 2056.0, 45.3431
28.1204, 23.970, 2274.0, 47.6865
28.153, 23.970, 2170.0, 46.5833
28.1855, 23.970, 2148.0, 46.3465
28.2181, 23.970, 2257.0, 47.5079
28.2507, 23.970, 2221.0, 47.1275
28.2833, 23.970, 2390.0, 48.8876
28.3159, 23.970, 2387.0, 48.8569
28.3485, 23.970, 2476.0, 49.7594
28.3811, 23.970, 2574.0, 50.7346
28.4137, 23.970, 2490.0, 49.8999
28.4463, 23.970, 2533.0, 50.3289
28.4789, 23.970, 2558.0, 50.5767
28.5115, 23.970, 2620.0, 51.1859
28.5441, 23.970, 2704.0, 52.0000
28.5767, 23.970, 2708.0, 52.0384
28.6093, 23.970, 2705.0, 52.0096
28.6419, 23.970, 2717.0, 52.1249
28.6745, 23.970, 2732.0, 52.2685
28.7071, 23.970, 2739.0, 52.3355
28.7397, 23.970, 2625.0, 51.2348
28.7723, 23.970, 2684.0, 51.8073
28.8049, 23.970, 2677.0, 51.7397
28.8375, 23.970, 2692.0, 51.8845
28.8701, 23.970, 2771.0, 52.6403
28.9027, 23.970, 2726.0, 52.2111
28.9353, 23.970, 2530.0, 50.2991
28.9679, 23.970, 2623.0, 51.2152
29.0005, 23.970, 2473.0, 49.7293
29.0331, 23.970, 2584.0, 50.8331
29.0657, 23.970, 2538.0, 50.3786
29.0983, 23.970, 2529.0, 50.2892
29.1309, 23.970, 2615.0, 51.1371
29.1635, 23.970, 2565.0, 50.6458
29.1961, 23.970, 2754.0, 52.4786
29.2287, 23.970, 3044.0, 55.1725
29.2613, 23.970, 3505.0, 59.2030
29.2939, 23.970, 4058.0, 63.7024
29.3265, 23.970, 4268.0, 65.3299
29.3591, 23.970, 3847.0, 62.0242
29.3917, 23.970, 3351.0, 57.8878
29.4243, 23.970, 2889.0, 53.7494
29.4569, 23.970, 2474.0, 49.7393
29.4895, 23.970, 2241.0, 47.3392
29.5221, 23.970, 2027.0, 45.0222
29.5547, 23.970, 2004.0, 44.7661
29.5873, 23.970, 1951.0, 44.1701
29.6199, 23.970, 1977.0, 44.4635
29.6525, 23.970, 1887.0, 43.4396
29.6851, 23.970, 1824.0, 42.7083
29.7177, 23.970, 1897.0, 43.5546
29.7503, 23.970, 1794.0, 42.3556
29.7829, 23.970, 1861.0, 43.1393
29.8155, 23.970, 1821.0, 42.6732
29.8481, 23.970, 1727.0, 41.5572
29.8807, 23.970, 1812.0, 42.5676
29.9133, 23.970, 1781.0, 42.2019
29.9459, 23.970, 1734.0, 41.6413
29.9785, 23.970, 1766.0, 42.0238
30.0111, 23.970, 1690.0, 41.1096
30.0437, 23.970, 1763.0, 41.9881
30.0763, 23.970, 1698.0, 41.2068
30.1089, 23.970, 1730.0, 41.5933
30.1415, 23.970, 1648.0, 40.5956
30.1741, 23.970, 1629.0, 40.3609
30.2067, 23.970, 1641.0, 40.5093
30.2393, 23.970, 1653.0, 40.6571
30.2719, 23.970, 1655.0, 40.6817
30.3045, 23.970, 1628.0, 40.3485
30.3371, 23.970, 1654.0, 40.6694
30.3697, 23.970, 1623.0, 40.2865
30.4023, 23.970, 1615.0, 40.1871
30.4349, 23.970, 1569.0, 39.6106
30.4675, 23.970, 1565.0, 39.5601
30.5001, 23.970, 1530.0, 39.1152
30.5327, 23.970, 1563.0, 39.5348
30.5653, 23.970, 1509.0, 38.8458
30.5979, 23.970, 1516.0, 38.9358
30.6305, 23.970, 1531.0, 39.1280
30.6631, 23.970, 1531.0, 39.1280
30.6957, 23.970, 1492.0, 38.6264
30.7283, 23.970, 1447.0, 38.0395
30.7609, 23.970, 1470.0, 38.3406
30.7935, 23.970, 1421.0, 37.6962
30.8261, 23.970, 1437.0, 37.9078
30.8587, 23.970, 1360.0, 36.8782
30.8913, 23.970, 1570.0, 39.6232
30.9239, 23.970, 1446.0, 38.0263
30.9565, 23.970, 1482.0, 38.4968
30.9891, 23.970, 1414.0, 37.6032
31.0217, 23.970, 1392.0, 37.3095
31.0543, 23.970, 1374.0, 37.0675
31.0869, 23.970, 1375.0, 37.0810
31.1195, 23.970, 1407.0, 37.5100
31.1521, 23.970, 1366.0, 36.9594
31.1847, 23.970, 1354.0, 36.7967
31.2173, 23.970, 1412.0, 37.5766
31.2499, 23.970, 1366.0, 36.9594
31.2825, 23.970, 1372.0, 37.0405
31.3151, 23.970, 1343.0, 36.6470
31.3477, 23.970, 1430.0, 37.8153
31.3803, 23.970, 1347.0, 36.7015
31.4129, 23.970, 1355.0, 36.8103
31.4455, 23.970, 1297.0, 36.0139
31.4781, 23.970, 1373.0, 37.0540
31.5107, 23.970, 1327.0, 36.4280
31.5433, 23.970, 1352.0, 36.7696
31.5759, 23.970, 1341.0, 36.6197
31.6085, 23.970, 1298.0, 36.0278
31.6411, 23.970, 1312.0, 36.2215
31.6737, 23.970, 1349.0, 36.7287
31.7063, 23.970, 1312.0, 36.2215
31.7389, 23.970, 1249.0, 35.3412
31.7715, 23.970, 1251.0, 35.3695
31.8041, 23.970, 1290.0, 35.9166
31.8367, 23.970, 1346.0, 36.6879
31.8693, 23.970, 1283.0, 35.8190
31.9019, 23.970, 1293.0, 35.9583
31.9345, 23.970, 1255.0, 35.4260
31.9671, 23.970, 1321.0, 36.3456
31.9997, 23.970, 1290.0, 35.9166
32.0323, 23.970, 1321.0, 36.3456
32.0649, 23.970, 1300.0, 36.0555
32.0975, 23.970, 1357.0, 36.8375
32.1301, 23.970, 1329.0, 36.4555
32.1627, 23.970, 1312.0, 36.2215
32.1953, 23.970, 1322.0, 36.3593
32.2279, 23.970, 1300.0, 36.0555
32.2605, 23.970, 1347.0, 36.7015
32.2931, 23.970, 1294.0, 35.9722
32.3257, 23.970, 1243.0, 35.2562
32.3583, 23.970, 1281.0, 35.7911
32.3909, 23.970, 1341.0, 36.6197
32.4235, 23.970, 1266.0, 35.5809
32.4561, 23.970, 1223.0, 34.9714
32.4887, 23.970, 1289.0, 35.9026
32.5213, 23.970, 1297.0, 36.0139
32.5539, 23.970, 1255.0, 35.4260
32.5865, 23.970, 1279.0, 35.7631
32.6191, 23.970, 1319.0, 36.3180
32.6517, 23.970, 1402.0, 37.4433
32.6843, 23.970, 1341.0, 36.6197
32.7169, 23.970, 1359.0, 36.8646
32.7495, 23.970, 1335.0, 36.5377
32.7821, 23.970, 1327.0, 36.4280
32.8147, 23.970, 1228.0, 35.0428
32.8473, 23.970, 1288.0, 35.8887
32.8799, 23.970, 1293.0, 35.9583
32.9125, 23.970, 1233.0, 35.1141
32.9451, 23.970, 1311.0, 36.2077
32.9776, 23.970, 1270.0, 35.6371
33.0102, 23.970, 1300.0, 36.0555
33.0428, 23.970, 1323.0, 36.3731
33.0754, 23.970, 1342.0, 36.6333
33.108, 23.970, 1292.0, 35.9444
33.1406, 23.970, 1280.0, 35.7771
33.1732, 23.970, 1242.0, 35.2420
33.2058, 23.970, 1252.0, 35.3836
33.2384, 23.970, 1273.0, 35.6791
33.271, 23.970, 1260.0, 35.4965
33.3036, 23.970, 1213.0, 34.8281
33.3362, 23.970, 1285.0, 35.8469
33.3688, 23.970, 1291.0, 35.9305
33.4014, 23.970, 1257.0, 35.4542
33.434, 23.970, 1275.0, 35.7071
33.4666, 23.970, 1229.0, 35.0571
33.4992, 23.970, 1247.0, 35.3129
33.5318, 23.970, 1249.0, 35.3412
33.5644, 23.970, 1214.0, 34.8425
33.597, 23.970, 1208.0, 34.7563
33.6296, 23.970, 1183.0, 34.3948
33.6622, 23.970, 1179.0, 34.3366
33.6948, 23.970, 1185.0, 34.4238
33.7274, 23.970, 1150.0, 33.9116
33.76, 23.970, 1226.0, 35.0143
33.7926, 23.970, 1193.0, 34.5398
33.8252, 23.970, 1178.0, 34.3220
33.8578, 23.970, 1156.0, 34.0000
33.8904, 23.970, 1131.0, 33.6303
33.923, 23.970, 1208.0, 34.7563
33.9556, 23.970, 1154.0, 33.9706
33.9882, 23.970, 1151.0, 33.9264
34.0208, 23.970, 1124.0, 33.5261
34.0534, 23.970, 1155.0, 33.9853
34.086, 23.970, 1130.0, 33.6155
34.1186, 23.970, 1087.0, 32.9697
34.1512, 23.970, 1040.0, 32.2490
34.1838, 23.970, 1014.0, 31.8434
34.2164, 23.970, 1081.0, 32.8786
34.249, 23.970, 1007.0, 31.7333
34.2816, 23.970, 1064.0, 32.6190
34.3142, 23.970, 1093.0, 33.0606
34.3468, 23.970, 1095.0, 33.0908
34.3794, 23.970, 1042.0, 32.2800
34.412, 23.970, 988.0, 31.4325
34.4446, 23.970, 1026.0, 32.0312
34.4772, 23.970, 1024.0, 32.0000
34.5098, 23.970, 1024.0, 32.0000
34.5424, 23.970, 1085.0, 32.9393
34.575, 23.970, 1022.0, 31.9687
34.6076, 23.970, 976.0, 31.2410
34.6402, 23.970, 1004.0, 31.6860
34.6728, 23.970, 1009.0, 31.7648
34.7054, 23.970, 1053.0, 32.4500
34.738, 23.970, 993.0, 31.5119
34.7706, 23.970, 1032.0, 32.1248
34.8032, 23.970, 988.0, 31.4325
34.8358, 23.970, 1050.0, 32.4037
34.8684, 23.970, 970.0, 31.1448
34.901, 23.970, 1026.0, 32.0312
34.9336, 23.970, 978.0, 31.2730
34.9662, 23.970, 971.0, 31.1609
34.9988, 23.970, 1001.0, 31.6386
35.0314, 23.970, 966.0, 31.0805
35.064, 23.970, 944.0, 30.7246
35.0966, 23.970, 970.0, 31.1448
35.1292, 23.970, 993.0, 31.5119
35.1618, 23.970, 969.0, 31.1288
35.1944, 23.970, 944.0, 30.7246
35.227, 23.970, 998.0, 31.5911
35.2596, 23.970, 1002.0, 31.6544
35.2922, 23.970, 958.0, 30.9516
35.3248, 23.970, 989.0, 31.4484
35.3574, 23.970, 974.0, 31.2090
35.39, 23.970, 967.0, 31.0966
35.4226, 23.970, 943.0, 30.7083
35.4552, 23.970, 992.0, 31.4960
35.4878, 23.970, 934.0, 30.5614
35.5204, 23.970, 1001.0, 31.6386
35.553, 23.970, 974.0, 31.2090
35.5856, 23.970, 941.0, 30.6757
35.6182, 23.970, 955.0, 30.9031
35.6508, 23.970, 936.0, 30.5941
35.6834, 23.970, 1039.0, 32.2335
35.716, 23.970, 958.0, 30.9516
35.7486, 23.970, 1034.0, 32.1559
35.7812, 23.970, 1110.0, 33.3167
35.8138, 23.970, 1065.0, 32.6343
35.8464, 23.970, 1176.0, 34.2929
35.879, 23.970, 1258.0, 35.4683
35.9116, 23.970, 1203.0, 34.6843
35.9442, 23.970, 1166.0, 34.1467
35.9768, 23.970, 1136.0, 33.7046
36.0094, 23.970, 1109.0, 33.3017
36.042, 23.970, 976.0, 31.2410
36.0746, 23.970, 954.0, 30.8869
36.1072, 23.970, 958.0, 30.9516
36.1398, 23.970, 942.0, 30.6920
36.1724, 23.970, 933.0, 30.5450
36.205, 23.970, 923.0, 30.3809
36.2376, 23.970, 868.0, 29.4618
36.2702, 23.970, 858.0, 29.2916
36.3028, 23.970, 937.0, 30.6105
36.3354, 23.970, 908.0, 30.1330
36.368, 23.970, 978.0, 31.2730
36.4006, 23.970, 956.0, 30.9192
36.4332, 23.970, 913.0, 30.2159
36.4658, 23.970, 902.0, 30.0333
36.4984, 23.970, 908.0, 30.1330
36.531, 23.970, 901.0, 30.0167
36.5636, 23.970, 837.0, 28.9310
36.5962, 23.970, 912.0, 30.1993
36.6288, 23.970, 859.0, 29.3087
36.6614, 23.970, 882.0, 29.6985
36.694, 23.970, 873.0, 29.5466
36.7266, 23.970, 905.0, 30.0832
36.7592, 23.970, 948.0, 30.7896
36.7918, 23.970, 950.0, 30.8221
36.8244, 23.970, 916.0, 30.2655
36.857, 23.970, 955.0, 30.9031
36.8896, 23.970, 923.0, 30.3809
36.9222, 23.970, 977.0, 31.2570
36.9548, 23.970, 891.0, 29.8496
36.9874, 23.970, 959.0, 30.9677
37.02, 23.970, 934.0, 30.5614
37.0526, 23.970, 889.0, 29.8161
37.0852, 23.970, 971.0, 31.1609
37.1178, 23.970, 908.0, 30.1330
37.1504, 23.970, 922.0, 30.3645
37.183, 23.970, 920.0, 30.3315
37.2156, 23.970, 960.0, 30.9839
37.2482, 23.970, 939.0, 30.6431
37.2808, 23.970, 892.0, 29.8664
37.3134, 23.970, 986.0, 31.4006
37.346, 23.970, 941.0, 30.6757
37.3786, 23.970, 911.0, 30.1828
37.4112, 23.970, 965.0, 31.0644
37.4438, 23.970, 927.0, 30.4467
37.4764, 23.970, 889.0, 29.8161
37.509, 23.970, 917.0, 30.2820
37.5416, 23.970, 1012.0, 31.8119
37.5742, 23.970, 966.0, 31.0805
37.6068, 23.970, 942.0, 30.6920
37.6394, 23.970, 980.0, 31.3050
37.672, 23.970, 1066.0, 32.6497
37.7046, 23.970, 1044.0, 32.3110
37.7372, 23.970, 1079.0, 32.8481
37.7697, 23.970, 1072.0, 32.7414
37.8023, 23.970, 1029.0, 32.0780
37.8349, 23.970, 1040.0, 32.2490
37.8675, 23.970, 1019.0, 31.9218
37.9001, 23.970, 1107.0, 33.2716
37.9327, 23.970, 1081.0, 32.8786
37.9653, 23.970, 1191.0, 34.5109
37.9979, 23.970, 1178.0, 34.3220
38.0305, 23.970, 1279.0, 35.7631
38.0631, 23.970, 1384.0, 37.2022
38.0957, 23.970, 1437.0, 37.9078
38.1283, 23.970, 1367.0, 36.9730
38.1609, 23.970, 1309.0, 36.1801
38.1935, 23.970, 1370.0, 37.0135
38.2261, 23.970, 1316.0, 36.2767
38.2587, 23.970, 1220.0, 34.9285
38.2913, 23.970, 1111.0, 33.3317
38.3239, 23.970, 1145.0, 33.8378
38.3565, 23.970, 1137.0, 33.7194
38.3891, 23.970, 1097.0, 33.1210
38.4217, 23.970, 1143.0, 33.8083
38.4543, 23.970, 1116.0, 33.4066
38.4869, 23.970, 1124.0, 33.5261
38.5195, 23.970, 1106.0, 33.2566
38.5521, 23.970, 1115.0, 33.3916
38.5847, 23.970, 1111.0, 33.3317
38.6173, 23.970, 1123.0, 33.5112
38.6499, 23.970, 1089.0, 33.0000
38.6825, 23.970, 1151.0, 33.9264
38.7151, 23.970, 1041.0, 32.2645
38.7477, 23.970, 1053.0, 32.4500
38.7803, 23.970, 1107.0, 33.2716
38.8129, 23.970, 1092.0, 33.0454
38.8455, 23.970, 1087.0, 32.9697
38.8781, 23.970, 1099.0, 33.1512
38.9107, 23.970, 1150.0, 33.9116
38.9433, 23.970, 1143.0, 33.8083
38.9759, 23.970, 1093.0, 33.0606
39.0085, 23.970, 1096.0, 33.1059
39.0411, 23.970, 1095.0, 33.0908
39.0737, 23.970, 1111.0, 33.3317
39.1063, 23.970, 1136.0, 33.7046
39.1389, 23.970, 1116.0, 33.4066
39.1715, 23.970, 1170.0, 34.2053
39.2041, 23.970, 1196.0, 34.5832
39.2367, 23.970, 1278.0, 35.7491
39.2693, 23.970, 1406.0, 37.4967
39.3019, 23.970, 1464.0, 38.2623
39.3345, 23.970, 1597.0, 39.9625
39.3671, 23.970, 1424.0, 37.7359
39.3997, 23.970, 1358.0, 36.8511
39.4323, 23.970, 1302.0, 36.0832
39.4649, 23.970, 1244.0, 35.2704
39.4975, 23.970, 1098.0, 33.1361
39.5301, 23.970, 1047.0, 32.3574
39.5627, 23.970, 1036.0, 32.1870
39.5953, 23.970, 1026.0, 32.0312
39.6279, 23.970, 1037.0, 32.2025
39.6605, 23.970, 978.0, 31.2730
39.6931, 23.970, 1027.0, 32.0468
39.7257, 23.970, 1031.0, 32.1092
39.7583, 23.970, 969.0, 31.1288
39.7909, 23.970, 1046.0, 32.3419
39.8235, 23.970, 922.0, 30.3645
39.8561, 23.970, 1002.0, 31.6544
39.8887, 23.970, 1034.0, 32.1559
39.9213, 23.970, 981.0, 31.3209
39.9539, 23.970, 966.0, 31.0805
39.9865, 23.970, 939.0, 30.6431
40.0191, 23.970, 970.0, 31.1448
40.0517, 23.970, 959.0, 30.9677
40.0843, 23.970, 994.0, 31.5278
40.1169, 23.970, 995.0, 31.5436
40.1495, 23.970, 999.0, 31.6070
40.1821, 23.970, 938.0, 30.6268
40.2147, 23.970, 940.0, 30.6594
40.2473, 23.970, 943.0, 30.7083
40.2799, 23.970, 983.0, 31.3528
40.3125, 23.970, 947.0, 30.7734
40.3451, 23.970, 1018.0, 31.9061
40.3777, 23.970, 996.0, 31.5595
40.4103, 23.970, 988.0, 31.4325
40.4429, 23.970, 1001.0, 31.6386
40.4755, 23.970, 1018.0, 31.9061
40.5081, 23.970, 1011.0, 31.7962
40.5407, 23.970, 1021.0, 31.9531
40.5733, 23.970, 986.0, 31.4006
40.6059, 23.970, 984.0, 31.3688
40.6385, 23.970, 962.0, 31.0161
40.6711, 23.970, 985.0, 31.3847
40.7037, 23.970, 1019.0, 31.9218
40.7363, 23.970, 1006.0, 31.7175
40.7689, 23.970, 1014.0, 31.8434
40.8015, 23.970, 934.0, 30.5614
40.8341, 23.970, 979.0, 31.2890
40.8667, 23.970, 942.0, 30.6920
40.8993, 23.970, 986.0, 31.4006
40.9319, 23.970, 976.0, 31.2410
40.9645, 23.970, 1014.0, 31.8434
40.9971, 23.970, 949.0, 30.8058
41.0297, 23.970, 979.0, 31.2890
41.0623, 23.970, 1035.0, 32.1714
41.0949, 23.970, 975.0, 31.2250
41.1275, 23.970, 1029.0, 32.0780
41.1601, 23.970, 936.0, 30.5941
41.1927, 23.970, 990.0, 31.4643
41.2253, 23.970, 962.0, 31.0161
41.2579, 23.970, 972.0, 31.1769
41.2905, 23.970, 1040.0, 32.2490
41.3231, 23.970, 916.0, 30.2655
41.3557, 23.970, 961.0, 31.0000
41.3883, 23.970, 944.0, 30.7246
41.4209, 23.970, 958.0, 30.9516
41.4535, 23.970, 1017.0, 31.8904
41.4861, 23.970, 962.0, 31.0161
41.5187, 23.970, 981.0, 31.3209
41.5513, 23.970, 912.0, 30.1993
41.5839, 23.970, 970.0, 31.1448
41.6165, 23.970, 948.0, 30.7896
41.6491, 23.970, 967.0, 31.0966
41.6817, 23.970, 940.0, 30.6594
41.7143, 23.970, 955.0, 30.9031
41.7469, 23.970, 956.0, 30.9192
41.7795, 23.970, 947.0, 30.7734
41.8121, 23.970, 937.0, 30.6105
41.8447, 23.970, 986.0, 31.4006
41.8773, 23.970, 884.0, 29.7321
41.9099, 23.970, 901.0, 30.0167
41.9425, 23.970, 916.0, 30.2655
41.9751, 23.970, 845.0, 29.0689
42.0077, 23.970, 982.0, 31.3369
42.0403, 23.970, 895.0, 29.9166
42.0729, 23.970, 937.0, 30.6105
42.1055, 23.970, 853.0, 29.2062
42.1381, 23.970, 920.0, 30.3315
42.1707, 23.970, 920.0, 30.3315
42.2033, 23.970, 838.0, 28.9482
42.2359, 23.970, 850.0, 29.1548
42.2685, 23.970, 912.0, 30.1993
42.3011, 23.970, 899.0, 29.9833
42.3337, 23.970, 915.0, 30.2490
42.3663, 23.970, 848.0, 29.1204
42.3989, 23.970, 868.0, 29.4618
42.4315, 23.970, 851.0, 29.1719
42.4641, 23.970, 877.0, 29.6142
42.4967, 23.970, 855.0, 29.2404
42.5293, 23.970, 875.0, 29.5804
42.5618, 23.970, 890.0, 29.8329
42.5944, 23.970, 876.0, 29.5973
42.627, 23.970, 845.0, 29.0689
42.6596, 23.970, 873.0, 29.5466
42.6922, 23.970, 877.0, 29.6142
42.7248, 23.970, 860.0, 29.3258
42.7574, 23.970, 885.0, 29.7489
42.79, 23.970, 809.0, 28.4429
42.8226, 23.970, 994.0, 31.5278
42.8552, 23.970, 891.0, 29.8496
42.8878, 23.970, 950.0, 30.8221
42.9204, 23.970, 960.0, 30.9839
42.953, 23.970, 978.0, 31.2730
42.9856, 23.970, 1077.0, 32.8177
43.0182, 23.970, 1056.0, 32.4962
43.0508, 23.970, 1296.0, 36.0000
43.0834, 23.970, 1298.0, 36.0278
43.116, 23.970, 1267.0, 35.5949
43.1486, 23.970, 1162.0, 34.0881
43.1812, 23.970, 1090.0, 33.0151
43.2138, 23.970, 1074.0, 32.7719
43.2464, 23.970, 968.0, 31.1127
43.279, 23.970, 923.0, 30.3809
43.3116, 23.970, 887.0, 29.7825
43.3442, 23.970, 929.0, 30.4795
43.3768, 23.970, 814.0, 28.5307
43.4094, 23.970, 827.0, 28.7576
43.442, 23.970, 862.0, 29.3598
43.4746, 23.970, 840.0, 28.9828
43.5072, 23.970, 887.0, 29.7825
43.5398, 23.970, 827.0, 28.7576
43.5724, 23.970, 907.0, 30.1164
43.605, 23.970, 855.0, 29.2404
43.6376, 23.970, 820.0, 28.6356
43.6702, 23.970, 832.0, 28.8444
43.7028, 23.970, 817.0, 28.5832
43.7354, 23.970, 835.0, 28.8964
43.768, 23.970, 782.0, 27.9643
43.8006, 23.970, 811.0, 28.4781
43.8332, 23.970, 858.0, 29.2916
43.8658, 23.970, 872.0, 29.5296
43.8984, 23.970, 834.0, 28.8791
43.931, 23.970, 871.0, 29.5127
43.9636, 23.970, 823.0, 28.6880
43.9962, 23.970, 877.0, 29.6142
44.0288, 23.970, 853.0, 29.2062
44.0614, 23.970, 880.0, 29.6648
44.094, 23.970, 834.0, 28.8791
44.1266, 23.970, 918.0, 30.2985
44.1592, 23.970, 946.0, 30.7571
44.1918, 23.970, 892.0, 29.8664
44.2244, 23.970, 984.0, 31.3688
44.257, 23.970, 986.0, 31.4006
44.2896, 23.970, 963.0, 31.0322
44.3222, 23.970, 920.0, 30.3315
44.3548, 23.970, 961.0, 31.0000
44.3874, 23.970, 937.0, 30.6105
44.42, 23.970, 964.0, 31.0483
44.4526, 23.970, 923.0, 30.3809
44.4852, 23.970, 888.0, 29.7993
44.5178, 23.970, 894.0, 29.8998
44.5504, 23.970, 861.0, 29.3428
44.583, 23.970, 867.0, 29.4449
44.6156, 23.970, 908.0, 30.1330
44.6482, 23.970, 865.0, 29.4109
44.6808, 23.970, 806.0, 28.3901
44.7134, 23.970, 786.0, 28.0357
44.746, 23.970, 819.0, 28.6182
44.7786, 23.970, 821.0, 28.6531
44.8112, 23.970, 795.0, 28.1957
44.8438, 23.970, 838.0, 28.9482
44.8764, 23.970, 832.0, 28.8444
44.909, 23.970, 833.0, 28.8617
44.9416, 23.970, 809.0, 28.4429
44.9742, 23.970, 773.0, 27.8029
45.0068, 23.970, 826.0, 28.7402
45.0394, 23.970, 850.0, 29.1548
45.072, 23.970, 820.0, 28.6356
45.1046, 23.970, 857.0, 29.2746
45.1372, 23.970, 842.0, 29.0172
45.1698, 23.970, 823.0, 28.6880
45.2024, 23.970, 819.0, 28.6182
45.235, 23.970, 810.0, 28.4605
45.2676, 23.970, 832.0, 28.8444
45.3002, 23.970, 806.0, 28.3901
45.3328, 23.970, 846.0, 29.0861
45.3654, 23.970, 819.0, 28.6182
45.398, 23.970, 798.0, 28.2489
45.4306, 23.970, 836.0, 28.9137
45.4632, 23.970, 814.0, 28.5307
45.4958, 23.970, 834.0, 28.8791
45.5284, 23.970, 832.0, 28.8444
45.561, 23.970, 837.0, 28.9310
45.5936, 23.970, 820.0, 28.6356
45.6262, 23.970, 782.0, 27.9643
45.6588, 23.970, 832.0, 28.8444
45.6914, 23.970, 787.0, 28.0535
45.724, 23.970, 810.0, 28.4605
45.7566, 23.970, 847.0, 29.1033
45.7892, 23.970, 808.0, 28.4253
45.8218, 23.970, 835.0, 28.8964
45.8544, 23.970, 809.0, 28.4429
45.887, 23.970, 791.0, 28.1247
45.9196, 23.970, 824.0, 28.7054
45.9522, 23.970, 827.0, 28.7576
45.9848, 23.970, 840.0, 28.9828
46.0174, 23.970, 815.0, 28.5482
46.05, 23.970, 814.0, 28.5307
46.0826, 23.970, 770.0, 27.7489
46.1152, 23.970, 812.0, 28.4956
46.1478, 23.970, 832.0, 28.8444
46.1804, 23.970, 806.0, 28.3901
46.213, 23.970, 838.0, 28.9482
46.2456, 23.970, 880.0, 29.6648
46.2782, 23.970, 783.0, 27.9821
46.3108, 23.970, 839.0, 28.9655
46.3434, 23.970, 822.0, 28.6705
46.376, 23.970, 804.0, 28.3549
46.4086, 23.970, 823.0, 28.6880
46.4412, 23.970, 775.0, 27.8388
46.4738, 23.970, 802.0, 28.3196
46.5064, 23.970, 815.0, 28.5482
46.539, 23.970, 851.0, 29.1719
46.5716, 23.970, 825.0, 28.7228
46.6042, 23.970, 894.0, 29.8998
46.6368, 23.970, 881.0, 29.6816
46.6694, 23.970, 852.0, 29.1890
46.702, 23.970, 904.0, 30.0666
46.7346, 23.970, 944.0, 30.7246
46.7672, 23.970, 887.0, 29.7825
46.7998, 23.970, 844.0, 29.0517
46.8324, 23.970, 886.0, 29.7658
46.865, 23.970, 868.0, 29.4618
46.8976, 23.970, 954.0, 30.8869
46.9302, 23.970, 919.0, 30.3150
46.9628, 23.970, 987.0, 31.4166
46.9954, 23.970, 1083.0, 32.9090
47.028, 23.970, 1086.0, 32.9545
47.0606, 23.970, 1070.0, 32.7109
47.0932, 23.970, 1068.0, 32.6803
47.1258, 23.970, 1100.0, 33.1662
47.1584, 23.970, 1145.0, 33.8378
47.191, 23.970, 1004.0, 31.6860
47.2236, 23.970, 1015.0, 31.8591
47.2562, 23.970, 1096.0, 33.1059
47.2888, 23.970, 1065.0, 32.6343
47.3214, 23.970, 1167.0, 34.1614
47.3539, 23.970, 1359.0, 36.8646
47.3865, 23.970, 1417.0, 37.6431
47.4191, 23.970, 1604.0, 40.0500
47.4517, 23.970, 1562.0, 39.5221
47.4843, 23.970, 1378.0, 37.1214
47.5169, 23.970, 1317.0, 36.2905
47.5495, 23.970, 1283.0, 35.8190
47.5821, 23.970, 1195.0, 34.5688
47.6147, 23.970, 1099.0, 33.1512
47.6473, 23.970, 1029.0, 32.0780
47.6799, 23.970, 1005.0, 31.7017
47.7125, 23.970, 908.0, 30.1330
47.7451, 23.970, 946.0, 30.7571
47.7777, 23.970, 924.0, 30.3974
47.8103, 23.970, 917.0, 30.2820
47.8429, 23.970, 969.0, 31.1288
47.8755, 23.970, 938.0, 30.6268
47.9081, 23.970, 886.0, 29.7658
47.9407, 23.970, 941.0, 30.6757
47.9733, 23.970, 934.0, 30.5614
48.0059, 23.970, 941.0, 30.6757
48.0385, 23.970, 949.0, 30.8058
48.0711, 23.970, 924.0, 30.3974
48.1037, 23.970, 887.0, 29.7825
48.1363, 23.970, 917.0, 30.2820
48.1689, 23.970, 874.0, 29.5635
48.2015, 23.970, 860.0, 29.3258
48.2341, 23.970, 901.0, 30.0167
48.2667, 23.970, 997.0, 31.5753
48.2993, 23.970, 964.0, 31.0483
48.3319, 23.970, 1081.0, 32.8786
48.3645, 23.970, 1252.0, 35.3836
48.3971, 23.970, 1334.0, 36.5240
48.4297, 23.970, 1505.0, 38.7943
48.4623, 23.970, 1370.0, 37.0135
48.4949, 23.970, 1263.0, 35.5387
48.5275, 23.970, 1108.0, 33.2866
48.5601, 23.970, 1113.0, 33.3617
48.5927, 23.970, 1038.0, 32.2180
48.6253, 23.970, 881.0, 29.6816
48.6579, 23.970, 874.0, 29.5635
48.6905, 23.970, 852.0, 29.1890
48.7231, 23.970, 796.0, 28.2135
48.7557, 23.970, 767.0, 27.6948
48.7883, 23.970, 731.0, 27.0370
48.8209, 23.970, 746.0, 27.3130
48.8535, 23.970, 829.0, 28.7924
48.8861, 23.970, 715.0, 26.7395
48.9187, 23.970, 773.0, 27.8029
48.9513, 23.970, 779.0, 27.9106
48.9839, 23.970, 745.0, 27.2947
49.0165, 23.970, 755.0, 27.4773
49.0491, 23.970, 801.0, 28.3019
49.0817, 23.970, 753.0, 27.4408
49.1143, 23.970, 763.0, 27.6225
49.1469, 23.970, 770.0, 27.7489
49.1795, 23.970, 771.0, 27.7669
49.2121, 23.970, 785.0, 28.0179
49.2447, 23.970, 799.0, 28.2666
49.2773, 23.970, 798.0, 28.2489
49.3099, 23.970, 773.0, 27.8029
49.3425, 23.970, 763.0, 27.6225
49.3751, 23.970, 769.0, 27.7308
49.4077, 23.970, 750.0, 27.3861
49.4403, 23.970, 775.0, 27.8388
49.4729, 23.970, 753.0, 27.4408
49.5055, 23.970, 771.0, 27.7669
49.5381, 23.970, 720.0, 26.8328
49.5707, 23.970, 725.0, 26.9258
49.6033, 23.970, 799.0, 28.2666
49.6359, 23.970, 748.0, 27.3496
49.6685, 23.970, 798.0, 28.2489
49.7011, 23.970, 709.0, 26.6271
49.7337, 23.970, 751.0, 27.4044
49.7663, 23.970, 718.0, 26.7955
49.7989, 23.970, 707.0, 26.5895
49.8315, 23.970, 770.0, 27.7489
49.8641, 23.970, 813.0, 28.5132
49.8967, 23.970, 737.0, 27.1477
49.9293, 23.970, 789.0, 28.0891
49.9619, 23.970, 793.0, 28.1603
49.9945, 23.970, 770.0, 27.7489