File: data/DSC/501023.csv
[Measurement conditions]
Sample identification,501023
Comment,
Anode material,Cu
K-Alpha1 wavelength,1.5406
K-Alpha2 wavelength,1.54443
Ratio K-Alpha2/K-Alpha1,0.500
Divergence slit,Fixed,0.38mm
Monochromator used,NO
Generator voltage, 40
Tube current, 15
File date and time,26/Feb/2025 10:39
Unit cell,
h k l, 0 0 0
Scan axis,Gonio
Scan range,5.002,49.9999
Scan step size,0.0108664
No. of points, 4141
Scan type,CONTINUOUS
Time per step,23.970
[Scan points]
Angle, TimePerStep, Intensity, ESD
5.00743, 23.970, 747.0, 27.3313
5.04003, 23.970, 726.0, 26.9444
5.07263, 23.970, 820.0, 28.6356
5.10523, 23.970, 808.0, 28.4253
5.13783, 23.970, 796.0, 28.2135
5.17043, 23.970, 847.0, 29.1033
5.20303, 23.970, 754.0, 27.4591
5.23563, 23.970, 829.0, 28.7924
5.26823, 23.970, 815.0, 28.5482
5.30083, 23.970, 765.0, 27.6586
5.33343, 23.970, 809.0, 28.4429
5.36603, 23.970, 799.0, 28.2666
5.39863, 23.970, 758.0, 27.5318
5.43122, 23.970, 804.0, 28.3549
5.46382, 23.970, 812.0, 28.4956
5.49642, 23.970, 809.0, 28.4429
5.52902, 23.970, 782.0, 27.9643
5.56162, 23.970, 789.0, 28.0891
5.59422, 23.970, 806.0, 28.3901
5.62682, 23.970, 804.0, 28.3549
5.65942, 23.970, 837.0, 28.9310
5.69202, 23.970, 836.0, 28.9137
5.72462, 23.970, 802.0, 28.3196
5.75722, 23.970, 823.0, 28.6880
5.78982, 23.970, 843.0, 29.0345
5.82242, 23.970, 869.0, 29.4788
5.85502, 23.970, 820.0, 28.6356
5.88761, 23.970, 853.0, 29.2062
5.92021, 23.970, 809.0, 28.4429
5.95281, 23.970, 801.0, 28.3019
5.98541, 23.970, 860.0, 29.3258
6.01801, 23.970, 884.0, 29.7321
6.05061, 23.970, 854.0, 29.2233
6.08321, 23.970, 844.0, 29.0517
6.11581, 23.970, 818.0, 28.6007
6.14841, 23.970, 870.0, 29.4958
6.18101, 23.970, 832.0, 28.8444
6.21361, 23.970, 872.0, 29.5296
6.24621, 23.970, 885.0, 29.7489
6.27881, 23.970, 865.0, 29.4109
6.31141, 23.970, 933.0, 30.5450
6.34401, 23.970, 910.0, 30.1662
6.3766, 23.970, 916.0, 30.2655
6.4092, 23.970, 882.0, 29.6985
6.4418, 23.970, 846.0, 29.0861
6.4744, 23.970, 869.0, 29.4788
6.507, 23.970, 929.0, 30.4795
6.5396, 23.970, 905.0, 30.0832
6.5722, 23.970, 848.0, 29.1204
6.6048, 23.970, 880.0, 29.6648
6.6374, 23.970, 912.0, 30.1993
6.67, 23.970, 932.0, 30.5287
6.7026, 23.970, 887.0, 29.7825
6.7352, 23.970, 923.0, 30.3809
6.7678, 23.970, 949.0, 30.8058
6.8004, 23.970, 951.0, 30.8383
6.833, 23.970, 895.0, 29.9166
6.86559, 23.970, 923.0, 30.3809
6.89819, 23.970, 916.0, 30.2655
6.93079, 23.970, 915.0, 30.2490
6.96339, 23.970, 975.0, 31.2250
6.99599, 23.970, 917.0, 30.2820
7.02859, 23.970, 950.0, 30.8221
7.06119, 23.970, 993.0, 31.5119
7.09379, 23.970, 992.0, 31.4960
7.12639, 23.970, 913.0, 30.2159
7.15899, 23.970, 997.0, 31.5753
7.19159, 23.970, 922.0, 30.3645
7.22419, 23.970, 981.0, 31.3209
7.25679, 23.970, 966.0, 31.0805
7.28939, 23.970, 1033.0, 32.1403
7.32198, 23.970, 954.0, 30.8869
7.35458, 23.970, 967.0, 31.0966
7.38718, 23.970, 1037.0, 32.2025
7.41978, 23.970, 1012.0, 31.8119
7.45238, 23.970, 933.0, 30.5450
7.48498, 23.970, 1002.0, 31.6544
7.51758, 23.970, 1087.0, 32.9697
7.55018, 23.970, 1117.0, 33.4215
7.58278, 23.970, 957.0, 30.9354
7.61538, 23.970, 1029.0, 32.0780
7.64798, 23.970, 1068.0, 32.6803
7.68058, 23.970, 1048.0, 32.3728
7.71318, 23.970, 1100.0, 33.1662
7.74578, 23.970, 1044.0, 32.3110
7.77838, 23.970, 1040.0, 32.2490
7.81097, 23.970, 1051.0, 32.4191
7.84357, 23.970, 1043.0, 32.2955
7.87617, 23.970, 1086.0, 32.9545
7.90877, 23.970, 1010.0, 31.7805
7.94137, 23.970, 1110.0, 33.3167
7.97397, 23.970, 1121.0, 33.4813
8.00657, 23.970, 1090.0, 33.0151
8.03917, 23.970, 1063.0, 32.6037
8.07177, 23.970, 1068.0, 32.6803
8.10437, 23.970, 1069.0, 32.6956
8.13697, 23.970, 1114.0, 33.3766
8.16957, 23.970, 1095.0, 33.0908
8.20217, 23.970, 1098.0, 33.1361
8.23477, 23.970, 1173.0, 34.2491
8.26737, 23.970, 1137.0, 33.7194
8.29996, 23.970, 1129.0, 33.6006
8.33256, 23.970, 1140.0, 33.7639
8.36516, 23.970, 1071.0, 32.7261
8.39776, 23.970, 1181.0, 34.3657
8.43036, 23.970, 1150.0, 33.9116
8.46296, 23.970, 1149.0, 33.8969
8.49556, 23.970, 1145.0, 33.8378
8.52816, 23.970, 1252.0, 35.3836
8.56076, 23.970, 1162.0, 34.0881
8.59336, 23.970, 1134.0, 33.6749
8.62596, 23.970, 1174.0, 34.2637
8.65856, 23.970, 1206.0, 34.7275
8.69116, 23.970, 1235.0, 35.1426
8.72376, 23.970, 1164.0, 34.1174
8.75636, 23.970, 1182.0, 34.3802
8.78895, 23.970, 1259.0, 35.4824
8.82155, 23.970, 1217.0, 34.8855
8.85415, 23.970, 1210.0, 34.7851
8.88675, 23.970, 1208.0, 34.7563
8.91935, 23.970, 1263.0, 35.5387
8.95195, 23.970, 1202.0, 34.6699
8.98455, 23.970, 1310.0, 36.1939
9.01715, 23.970, 1206.0, 34.7275
9.04975, 23.970, 1228.0, 35.0428
9.08235, 23.970, 1317.0, 36.2905
9.11495, 23.970, 1332.0, 36.4966
9.14755, 23.970, 1239.0, 35.1994
9.18015, 23.970, 1346.0, 36.6879
9.21275, 23.970, 1243.0, 35.2562
9.24534, 23.970, 1270.0, 35.6371
9.27794, 23.970, 1304.0, 36.1109
9.31054, 23.970, 1335.0, 36.5377
9.34314, 23.970, 1324.0, 36.3868
9.37574, 23.970, 1331.0, 36.4829
9.40834, 23.970, 1370.0, 37.0135
9.44094, 23.970, 1353.0, 36.7831
9.47354, 23.970, 1423.0, 37.7227
9.50614, 23.970, 1378.0, 37.1214
9.53874, 23.970, 1315.0, 36.2629
9.57134, 23.970, 1364.0, 36.9324
9.60394, 23.970, 1384.0, 37.2022
9.63654, 23.970, 1339.0, 36.5923
9.66914, 23.970, 1412.0, 37.5766
9.70174, 23.970, 1343.0, 36.6470
9.73433, 23.970, 1414.0, 37.6032
9.76693, 23.970, 1459.0, 38.1969
9.79953, 23.970, 1436.0, 37.8946
9.83213, 23.970, 1414.0, 37.6032
9.86473, 23.970, 1442.0, 37.9737
9.89733, 23.970, 1383.0, 37.1887
9.92993, 23.970, 1435.0, 37.8814
9.96253, 23.970, 1521.0, 39.0000
9.99513, 23.970, 1454.0, 38.1314
10.0277, 23.970, 1470.0, 38.3406
10.0603, 23.970, 1473.0, 38.3797
10.0929, 23.970, 1515.0, 38.9230
10.1255, 23.970, 1454.0, 38.1314
10.1581, 23.970, 1471.0, 38.3536
10.1907, 23.970, 1563.0, 39.5348
10.2233, 23.970, 1545.0, 39.3065
10.2559, 23.970, 1514.0, 38.9102
10.2885, 23.970, 1508.0, 38.8330
10.3211, 23.970, 1477.0, 38.4318
10.3537, 23.970, 1519.0, 38.9744
10.3863, 23.970, 1599.0, 39.9875
10.4189, 23.970, 1550.0, 39.3700
10.4515, 23.970, 1634.0, 40.4228
10.4841, 23.970, 1662.0, 40.7676
10.5167, 23.970, 1583.0, 39.7869
10.5493, 23.970, 1570.0, 39.6232
10.5819, 23.970, 1668.0, 40.8412
10.6145, 23.970, 1603.0, 40.0375
10.6471, 23.970, 1590.0, 39.8748
10.6797, 23.970, 1620.0, 40.2492
10.7123, 23.970, 1635.0, 40.4351
10.7449, 23.970, 1636.0, 40.4475
10.7775, 23.970, 1654.0, 40.6694
10.8101, 23.970, 1617.0, 40.2119
10.8427, 23.970, 1694.0, 41.1582
10.8753, 23.970, 1627.0, 40.3361
10.9079, 23.970, 1644.0, 40.5463
10.9405, 23.970, 1713.0, 41.3884
10.9731, 23.970, 1688.0, 41.0853
11.0057, 23.970, 1770.0, 42.0714
11.0383, 23.970, 1708.0, 41.3280
11.0709, 23.970, 1739.0, 41.7013
11.1035, 23.970, 1680.0, 40.9878
11.1361, 23.970, 1651.0, 40.6325
11.1687, 23.970, 1754.0, 41.8808
11.2013, 23.970, 1781.0, 42.2019
11.2339, 23.970, 1729.0, 41.5812
11.2665, 23.970, 1769.0, 42.0595
11.2991, 23.970, 1853.0, 43.0465
11.3317, 23.970, 1906.0, 43.6578
11.3643, 23.970, 1798.0, 42.4028
11.3969, 23.970, 1869.0, 43.2319
11.4295, 23.970, 2023.0, 44.9778
11.4621, 23.970, 1854.0, 43.0581
11.4947, 23.970, 1968.0, 44.3621
11.5273, 23.970, 1862.0, 43.1509
11.5599, 23.970, 1897.0, 43.5546
11.5925, 23.970, 1903.0, 43.6234
11.6251, 23.970, 1891.0, 43.4856
11.6577, 23.970, 1931.0, 43.9431
11.6903, 23.970, 1910.0, 43.7035
11.7229, 23.970, 1953.0, 44.1928
11.7555, 23.970, 1931.0, 43.9431
11.7881, 23.970, 2024.0, 44.9889
11.8207, 23.970, 1955.0, 44.2154
11.8533, 23.970, 1996.0, 44.6766
11.8859, 23.970, 2045.0, 45.2217
11.9185, 23.970, 2077.0, 45.5741
11.9511, 23.970, 2041.0, 45.1774
11.9837, 23.970, 2046.0, 45.2327
12.0163, 23.970, 2032.0, 45.0777
12.0489, 23.970, 2083.0, 45.6399
12.0815, 23.970, 2069.0, 45.4863
12.1141, 23.970, 2166.0, 46.5403
12.1467, 23.970, 2130.0, 46.1519
12.1793, 23.970, 2215.0, 47.0638
12.2119, 23.970, 2189.0, 46.7868
12.2445, 23.970, 2187.0, 46.7654
12.2771, 23.970, 2111.0, 45.9456
12.3097, 23.970, 2131.0, 46.1628
12.3423, 23.970, 2228.0, 47.2017
12.3749, 23.970, 2266.0, 47.6025
12.4075, 23.970, 2287.0, 47.8226
12.4401, 23.970, 2221.0, 47.1275
12.4727, 23.970, 2219.0, 47.1063
12.5053, 23.970, 2218.0, 47.0956
12.5379, 23.970, 2337.0, 48.3425
12.5705, 23.970, 2343.0, 48.4045
12.6031, 23.970, 2218.0, 47.0956
12.6357, 23.970, 2397.0, 48.9592
12.6683, 23.970, 2312.0, 48.0833
12.7009, 23.970, 2414.0, 49.1325
12.7335, 23.970, 2419.0, 49.1833
12.7661, 23.970, 2415.0, 49.1426
12.7987, 23.970, 2436.0, 49.3559
12.8313, 23.970, 2467.0, 49.6689
12.8639, 23.970, 2448.0, 49.4773
12.8965, 23.970, 2583.0, 50.8232
12.9291, 23.970, 2478.0, 49.7795
12.9617, 23.970, 2509.0, 50.0899
12.9943, 23.970, 2532.0, 50.3190
13.0269, 23.970, 2638.0, 51.3615
13.0595, 23.970, 2557.0, 50.5668
13.0921, 23.970, 2462.0, 49.6185
13.1247, 23.970, 2631.0, 51.2933
13.1573, 23.970, 2585.0, 50.8429
13.1899, 23.970, 2734.0, 52.2877
13.2225, 23.970, 2647.0, 51.4490
13.2551, 23.970, 2638.0, 51.3615
13.2877, 23.970, 2673.0, 51.7011
13.3203, 23.970, 2655.0, 51.5267
13.3529, 23.970, 2799.0, 52.9056
13.3855, 23.970, 2734.0, 52.2877
13.4181, 23.970, 2724.0, 52.1920
13.4507, 23.970, 2688.0, 51.8459
13.4833, 23.970, 2792.0, 52.8394
13.5159, 23.970, 2915.0, 53.9907
13.5485, 23.970, 2877.0, 53.6377
13.5811, 23.970, 2831.0, 53.2071
13.6137, 23.970, 2897.0, 53.8238
13.6463, 23.970, 2862.0, 53.4977
13.6789, 23.970, 2901.0, 53.8609
13.7115, 23.970, 2914.0, 53.9815
13.7441, 23.970, 2967.0, 54.4702
13.7767, 23.970, 3000.0, 54.7723
13.8092, 23.970, 3027.0, 55.0182
13.8418, 23.970, 3103.0, 55.7046
13.8744, 23.970, 3069.0, 55.3986
13.907, 23.970, 3151.0, 56.1338
13.9396, 23.970, 3089.0, 55.5788
13.9722, 23.970, 3119.0, 55.8480
14.0048, 23.970, 3109.0, 55.7584
14.0374, 23.970, 3114.0, 55.8032
14.07, 23.970, 3096.0, 55.6417
14.1026, 23.970, 3186.0, 56.4447
14.1352, 23.970, 3280.0, 57.2713
14.1678, 23.970, 3247.0, 56.9825
14.2004, 23.970, 3314.0, 57.5674
14.233, 23.970, 3294.0, 57.3934
14.2656, 23.970, 3269.0, 57.1752
14.2982, 23.970, 3402.0, 58.3267
14.3308, 23.970, 3432.0, 58.5833
14.3634, 23.970, 3484.0, 59.0254
14.396, 23.970, 3488.0, 59.0593
14.4286, 23.970, 3412.0, 58.4123
14.4612, 23.970, 3409.0, 58.3866
14.4938, 23.970, 3436.0, 58.6174
14.5264, 23.970, 3556.0, 59.6322
14.559, 23.970, 3509.0, 59.2368
14.5916, 23.970, 3569.0, 59.7411
14.6242, 23.970, 3550.0, 59.5819
14.6568, 23.970, 3684.0, 60.6960
14.6894, 23.970, 3715.0, 60.9508
14.722, 23.970, 3608.0, 60.0666
14.7546, 23.970, 3686.0, 60.7124
14.7872, 23.970, 3728.0, 61.0574
14.8198, 23.970, 3746.0, 61.2046
14.8524, 23.970, 3653.0, 60.4401
14.885, 23.970, 3587.0, 59.8916
14.9176, 23.970, 3863.0, 62.1530
14.9502, 23.970, 3849.0, 62.0403
14.9828, 23.970, 3867.0, 62.1852
15.0154, 23.970, 3936.0, 62.7375
15.048, 23.970, 3950.0, 62.8490
15.0806, 23.970, 3866.0, 62.1772
15.1132, 23.970, 3934.0, 62.7216
15.1458, 23.970, 4033.0, 63.5059
15.1784, 23.970, 4047.0, 63.6160
15.211, 23.970, 4055.0, 63.6789
15.2436, 23.970, 4079.0, 63.8670
15.2762, 23.970, 4202.0, 64.8228
15.3088, 23.970, 4190.0, 64.7302
15.3414, 23.970, 4239.0, 65.1076
15.374, 23.970, 4168.0, 64.5600
15.4066, 23.970, 4171.0, 64.5833
15.4392, 23.970, 4267.0, 65.3223
15.4718, 23.970, 4320.0, 65.7267
15.5044, 23.970, 4240.0, 65.1153
15.537, 23.970, 4409.0, 66.4003
15.5696, 23.970, 4287.0, 65.4752
15.6022, 23.970, 4407.0, 66.3852
15.6348, 23.970, 4338.0, 65.8635
15.6674, 23.970, 4410.0, 66.4078
15.7, 23.970, 4564.0, 67.5574
15.7326, 23.970, 4371.0, 66.1135
15.7652, 23.970, 4512.0, 67.1714
15.7978, 23.970, 4556.0, 67.4981
15.8304, 23.970, 4443.0, 66.6558
15.863, 23.970, 4646.0, 68.1616
15.8956, 23.970, 4811.0, 69.3614
15.9282, 23.970, 4667.0, 68.3154
15.9608, 23.970, 4831.0, 69.5054
15.9934, 23.970, 4728.0, 68.7605
16.026, 23.970, 4703.0, 68.5784
16.0586, 23.970, 4875.0, 69.8212
16.0912, 23.970, 4851.0, 69.6491
16.1238, 23.970, 4996.0, 70.6824
16.1564, 23.970, 5040.0, 70.9930
16.189, 23.970, 4958.0, 70.4131
16.2216, 23.970, 4978.0, 70.5549
16.2542, 23.970, 4986.0, 70.6116
16.2868, 23.970, 4929.0, 70.2068
16.3194, 23.970, 5126.0, 71.5961
16.352, 23.970, 4990.0, 70.6399
16.3846, 23.970, 5125.0, 71.5891
16.4172, 23.970, 5252.0, 72.4707
16.4498, 23.970, 5251.0, 72.4638
16.4824, 23.970, 5205.0, 72.1457
16.515, 23.970, 5248.0, 72.4431
16.5476, 23.970, 5306.0, 72.8423
16.5802, 23.970, 5242.0, 72.4017
16.6128, 23.970, 5303.0, 72.8217
16.6454, 23.970, 5447.0, 73.8038
16.678, 23.970, 5322.0, 72.9520
16.7106, 23.970, 5404.0, 73.5119
16.7432, 23.970, 5538.0, 74.4177
16.7758, 23.970, 5531.0, 74.3707
16.8084, 23.970, 5515.0, 74.2630
16.841, 23.970, 5606.0, 74.8732
16.8736, 23.970, 5442.0, 73.7699
16.9062, 23.970, 5534.0, 74.3909
16.9388, 23.970, 5518.0, 74.2832
16.9714, 23.970, 5723.0, 75.6505
17.004, 23.970, 5711.0, 75.5712
17.0366, 23.970, 5689.0, 75.4255
17.0692, 23.970, 6037.0, 77.6981
17.1018, 23.970, 5912.0, 76.8895
17.1344, 23.970, 5906.0, 76.8505
17.167, 23.970, 5955.0, 77.1686
17.1996, 23.970, 5912.0, 76.8895
17.2322, 23.970, 5991.0, 77.4016
17.2648, 23.970, 6393.0, 79.9562
17.2974, 23.970, 6411.0, 80.0687
17.33, 23.970, 6426.0, 80.1623
17.3626, 23.970, 6401.0, 80.0062
17.3952, 23.970, 6423.0, 80.1436
17.4278, 23.970, 6688.0, 81.7802
17.4604, 23.970, 6741.0, 82.1036
17.493, 23.970, 6896.0, 83.0422
17.5256, 23.970, 7119.0, 84.3742
17.5582, 23.970, 7195.0, 84.8233
17.5908, 23.970, 7262.0, 85.2174
17.6234, 23.970, 7498.0, 86.5910
17.656, 23.970, 7605.0, 87.2067
17.6886, 23.970, 7834.0, 88.5099
17.7212, 23.970, 8049.0, 89.7162
17.7538, 23.970, 8271.0, 90.9450
17.7864, 23.970, 8525.0, 92.3309
17.819, 23.970, 8622.0, 92.8547
17.8516, 23.970, 9084.0, 95.3100
17.8842, 23.970, 9061.0, 95.1893
17.9168, 23.970, 9375.0, 96.8246
17.9494, 23.970, 9773.0, 98.8585
17.982, 23.970, 9964.0, 99.8198
18.0146, 23.970, 9976.0, 99.8799
18.0472, 23.970, 10150.0, 100.7472
18.0798, 23.970, 10496.0, 102.4500
18.1124, 23.970, 10608.0, 102.9951
18.145, 23.970, 10672.0, 103.3054
18.1776, 23.970, 10834.0, 104.0865
18.2102, 23.970, 10687.0, 103.3779
18.2428, 23.970, 10964.0, 104.7091
18.2754, 23.970, 10912.0, 104.4605
18.308, 23.970, 10779.0, 103.8220
18.3406, 23.970, 10596.0, 102.9369
18.3732, 23.970, 10481.0, 102.3768
18.4058, 23.970, 10100.0, 100.4988
18.4384, 23.970, 10096.0, 100.4789
18.471, 23.970, 9724.0, 98.6103
18.5036, 23.970, 9323.0, 96.5557
18.5362, 23.970, 9415.0, 97.0309
18.5688, 23.970, 8902.0, 94.3504
18.6013, 23.970, 8727.0, 93.4184
18.6339, 23.970, 8422.0, 91.7715
18.6665, 23.970, 8147.0, 90.2607
18.6991, 23.970, 7965.0, 89.2468
18.7317, 23.970, 7747.0, 88.0170
18.7643, 23.970, 7478.0, 86.4754
18.7969, 23.970, 7346.0, 85.7088
18.8295, 23.970, 7063.0, 84.0417
18.8621, 23.970, 7059.0, 84.0179
18.8947, 23.970, 6887.0, 82.9880
18.9273, 23.970, 6764.0, 82.2435
18.9599, 23.970, 6672.0, 81.6823
18.9925, 23.970, 6578.0, 81.1049
19.0251, 23.970, 6524.0, 80.7713
19.0577, 23.970, 6401.0, 80.0062
19.0903, 23.970, 6501.0, 80.6288
19.1229, 23.970, 6414.0, 80.0875
19.1555, 23.970, 6291.0, 79.3158
19.1881, 23.970, 6235.0, 78.9620
19.2207, 23.970, 6151.0, 78.4283
19.2533, 23.970, 6176.0, 78.5875
19.2859, 23.970, 6147.0, 78.4028
19.3185, 23.970, 6231.0, 78.9367
19.3511, 23.970, 6186.0, 78.6511
19.3837, 23.970, 6082.0, 77.9872
19.4163, 23.970, 6149.0, 78.4156
19.4489, 23.970, 6248.0, 79.0443
19.4815, 23.970, 6160.0, 78.4857
19.5141, 23.970, 6267.0, 79.1644
19.5467, 23.970, 6258.0, 79.1075
19.5793, 23.970, 6192.0, 78.6893
19.6119, 23.970, 6269.0, 79.1770
19.6445, 23.970, 6199.0, 78.7337
19.6771, 23.970, 6274.0, 79.2086
19.7097, 23.970, 6264.0, 79.1454
19.7423, 23.970, 6546.0, 80.9074
19.7749, 23.970, 6427.0, 80.1686
19.8075, 23.970, 6415.0, 80.0937
19.8401, 23.970, 6481.0, 80.5047
19.8727, 23.970, 6533.0, 80.8270
19.9053, 23.970, 6631.0, 81.4310
19.9379, 23.970, 6648.0, 81.5353
19.9705, 23.970, 6660.0, 81.6088
20.0031, 23.970, 6712.0, 81.9268
20.0357, 23.970, 6748.0, 82.1462
20.0683, 23.970, 6839.0, 82.6982
20.1009, 23.970, 6884.0, 82.9699
20.1335, 23.970, 6913.0, 83.1445
20.1661, 23.970, 6883.0, 82.9638
20.1987, 23.970, 6900.0, 83.0662
20.2313, 23.970, 6841.0, 82.7103
20.2639, 23.970, 6780.0, 82.3408
20.2965, 23.970, 6606.0, 81.2773
20.3291, 23.970, 6708.0, 81.9024
20.3617, 23.970, 6658.0, 81.5966
20.3943, 23.970, 6605.0, 81.2712
20.4269, 23.970, 6454.0, 80.3368
20.4595, 23.970, 6417.0, 80.1062
20.4921, 23.970, 6124.0, 78.2560
20.5247, 23.970, 6335.0, 79.5927
20.5573, 23.970, 6125.0, 78.2624
20.5899, 23.970, 6015.0, 77.5564
20.6225, 23.970, 6024.0, 77.6144
20.6551, 23.970, 5946.0, 77.1103
20.6877, 23.970, 5909.0, 76.8700
20.7203, 23.970, 5705.0, 75.5315
20.7529, 23.970, 5658.0, 75.2197
20.7855, 23.970, 5660.0, 75.2330
20.8181, 23.970, 5461.0, 73.8986
20.8507, 23.970, 5435.0, 73.7225
20.8833, 23.970, 5439.0, 73.7496
20.9159, 23.970, 5435.0, 73.7225
20.9485, 23.970, 5286.0, 72.7049
20.9811, 23.970, 5419.0, 73.6139
21.0137, 23.970, 5182.0, 71.9861
21.0463, 23.970, 5339.0, 73.0685
21.0789, 23.970, 5137.0, 71.6729
21.1115, 23.970, 5230.0, 72.3187
21.1441, 23.970, 5086.0, 71.3162
21.1767, 23.970, 5118.0, 71.5402
21.2093, 23.970, 5229.0, 72.3118
21.2419, 23.970, 5290.0, 72.7324
21.2745, 23.970, 5226.0, 72.2911
21.3071, 23.970, 5270.0, 72.5948
21.3397, 23.970, 5285.0, 72.6980
21.3723, 23.970, 5370.0, 73.2803
21.4049, 23.970, 5405.0, 73.5187
21.4375, 23.970, 5391.0, 73.4234
21.4701, 23.970, 5478.0, 74.0135
21.5027, 23.970, 5562.0, 74.5788
21.5353, 23.970, 5679.0, 75.3591
21.5679, 23.970, 5790.0, 76.0920
21.6005, 23.970, 5864.0, 76.5768
21.6331, 23.970, 5908.0, 76.8635
21.6657, 23.970, 6040.0, 77.7174
21.6983, 23.970, 6132.0, 78.3071
21.7309, 23.970, 6382.0, 79.8874
21.7635, 23.970, 6282.0, 79.2591
21.7961, 23.970, 6396.0, 79.9750
21.8287, 23.970, 6517.0, 80.7279
21.8613, 23.970, 6595.0, 81.2096
21.8939, 23.970, 6433.0, 80.2060
21.9265, 23.970, 6581.0, 81.1234
21.9591, 23.970, 6528.0, 80.7960
21.9917, 23.970, 6669.0, 81.6639
22.0243, 23.970, 6678.0, 81.7190
22.0569, 23.970, 6727.0, 82.0183
22.0895, 23.970, 6644.0, 81.5107
22.1221, 23.970, 6648.0, 81.5353
22.1547, 23.970, 6531.0, 80.8146
22.1873, 23.970, 6596.0, 81.2158
22.2199, 23.970, 6381.0, 79.8812
22.2525, 23.970, 6339.0, 79.6178
22.2851, 23.970, 6272.0, 79.1960
22.3177, 23.970, 6298.0, 79.3599
22.3503, 23.970, 6112.0, 78.1793
22.3829, 23.970, 5954.0, 77.1622
22.4155, 23.970, 5902.0, 76.8245
22.4481, 23.970, 5684.0, 75.3923
22.4807, 23.970, 5626.0, 75.0067
22.5133, 23.970, 5490.0, 74.0945
22.5459, 23.970, 5367.0, 73.2598
22.5785, 23.970, 5327.0, 72.9863
22.6111, 23.970, 5235.0, 72.3533
22.6437, 23.970, 5004.0, 70.7390
22.6763, 23.970, 5039.0, 70.9859
22.7089, 23.970, 4900.0, 70.0000
22.7415, 23.970, 4696.0, 68.5274
22.7741, 23.970, 4667.0, 68.3154
22.8067, 23.970, 4511.0, 67.1640
22.8393, 23.970, 4445.0, 66.6708
22.8719, 23.970, 4352.0, 65.9697
22.9045, 23.970, 4283.0, 65.4446
22.9371, 23.970, 4215.0, 64.9230
22.9697, 23.970, 4224.0, 64.9923
23.0023, 23.970, 4012.0, 63.3404
23.0349, 23.970, 4097.0, 64.0078
23.0675, 23.970, 4018.0, 63.3877
23.1001, 23.970, 3827.0, 61.8628
23.1327, 23.970, 3755.0, 61.2781
23.1653, 23.970, 3716.0, 60.9590
23.1979, 23.970, 3743.0, 61.1801
23.2305, 23.970, 3650.0, 60.4152
23.2631, 23.970, 3652.0, 60.4318
23.2957, 23.970, 3484.0, 59.0254
23.3283, 23.970, 3465.0, 58.8643
23.3609, 23.970, 3359.0, 57.9569
23.3934, 23.970, 3262.0, 57.1139
23.426, 23.970, 3446.0, 58.7026
23.4586, 23.970, 3255.0, 57.0526
23.4912, 23.970, 3219.0, 56.7362
23.5238, 23.970, 3197.0, 56.5420
23.5564, 23.970, 3205.0, 56.6127
23.589, 23.970, 3055.0, 55.2721
23.6216, 23.970, 3130.0, 55.9464
23.6542, 23.970, 3114.0, 55.8032
23.6868, 23.970, 3045.0, 55.1815
23.7194, 23.970, 2988.0, 54.6626
23.752, 23.970, 3019.0, 54.9454
23.7846, 23.970, 3028.0, 55.0273
23.8172, 23.970, 2900.0, 53.8516
23.8498, 23.970, 2956.0, 54.3691
23.8824, 23.970, 2877.0, 53.6377
23.915, 23.970, 2848.0, 53.3667
23.9476, 23.970, 2766.0, 52.5928
23.9802, 23.970, 2818.0, 53.0848
24.0128, 23.970, 2773.0, 52.6593
24.0454, 23.970, 2777.0, 52.6972
24.078, 23.970, 2710.0, 52.0577
24.1106, 23.970, 2654.0, 51.5170
24.1432, 23.970, 2711.0, 52.0673
24.1758, 23.970, 2676.0, 51.7301
24.2084, 23.970, 2667.0, 51.6430
24.241, 23.970, 2624.0, 51.2250
24.2736, 23.970, 2663.0, 51.6043
24.3062, 23.970, 2716.0, 52.1153
24.3388, 23.970, 2634.0, 51.3225
24.3714, 23.970, 2649.0, 51.4684
24.404, 23.970, 2615.0, 51.1371
24.4366, 23.970, 2636.0, 51.3420
24.4692, 23.970, 2651.0, 51.4879
24.5018, 23.970, 2511.0, 50.1099
24.5344, 23.970, 2531.0, 50.3090
24.567, 23.970, 2574.0, 50.7346
24.5996, 23.970, 2463.0, 49.6286
24.6322, 23.970, 2517.0, 50.1697
24.6648, 23.970, 2491.0, 49.9099
24.6974, 23.970, 2509.0, 50.0899
24.73, 23.970, 2505.0, 50.0500
24.7626, 23.970, 2359.0, 48.5695
24.7952, 23.970, 2532.0, 50.3190
24.8278, 23.970, 2407.0, 49.0612
24.8604, 23.970, 2491.0, 49.9099
24.893, 23.970, 2399.0, 48.9796
24.9256, 23.970, 2439.0, 49.3862
24.9582, 23.970, 2491.0, 49.9099
24.9908, 23.970, 2531.0, 50.3090
25.0234, 23.970, 2406.0, 49.0510
25.056, 23.970, 2317.0, 48.1352
25.0886, 23.970, 2426.0, 49.2544
25.1212, 23.970, 2436.0, 49.3559
25.1538, 23.970, 2381.0, 48.7955
25.1864, 23.970, 2355.0, 48.5283
25.219, 23.970, 2465.0, 49.6488
25.2516, 23.970, 2371.0, 48.6929
25.2842, 23.970, 2213.0, 47.0425
25.3168, 23.970, 2355.0, 48.5283
25.3494, 23.970, 2265.0, 47.5920
25.382, 23.970, 2416.0, 49.1528
25.4146, 23.970, 2321.0, 48.1768
25.4472, 23.970, 2263.0, 47.5710
25.4798, 23.970, 2265.0, 47.5920
25.5124, 23.970, 2278.0, 47.7284
25.545, 23.970, 2298.0, 47.9375
25.5776, 23.970, 2329.0, 48.2597
25.6102, 23.970, 2175.0, 46.6369
25.6428, 23.970, 2236.0, 47.2864
25.6754, 23.970, 2286.0, 47.8121
25.708, 23.970, 2222.0, 47.1381
25.7406, 23.970, 2249.0, 47.4236
25.7732, 23.970, 2298.0, 47.9375
25.8058, 23.970, 2205.0, 46.9574
25.8384, 23.970, 2168.0, 46.5618
25.871, 23.970, 2244.0, 47.3709
25.9036, 23.970, 2245.0, 47.3814
25.9362, 23.970, 2138.0, 46.2385
25.9688, 23.970, 2193.0, 46.8295
26.0014, 23.970, 2105.0, 45.8803
26.034, 23.970, 2108.0, 45.9130
26.0666, 23.970, 2191.0, 46.8081
26.0992, 23.970, 2089.0, 45.7056
26.1318, 23.970, 2042.0, 45.1885
26.1644, 23.970, 2153.0, 46.4004
26.197, 23.970, 2128.0, 46.1303
26.2296, 23.970, 2053.0, 45.3100
26.2622, 23.970, 2010.0, 44.8330
26.2948, 23.970, 2066.0, 45.4533
26.3274, 23.970, 2059.0, 45.3762
26.36, 23.970, 2123.0, 46.0760
26.3926, 23.970, 2058.0, 45.3652
26.4252, 23.970, 1988.0, 44.5870
26.4578, 23.970, 1986.0, 44.5646
26.4904, 23.970, 2026.0, 45.0111
26.523, 23.970, 2049.0, 45.2659
26.5556, 23.970, 2031.0, 45.0666
26.5882, 23.970, 2059.0, 45.3762
26.6208, 23.970, 2025.0, 45.0000
26.6534, 23.970, 2016.0, 44.8999
26.686, 23.970, 2065.0, 45.4423
26.7186, 23.970, 2040.0, 45.1664
26.7512, 23.970, 2024.0, 44.9889
26.7838, 23.970, 2024.0, 44.9889
26.8164, 23.970, 2049.0, 45.2659
26.849, 23.970, 1977.0, 44.4635
26.8816, 23.970, 1934.0, 43.9773
26.9142, 23.970, 1970.0, 44.3847
26.9468, 23.970, 1937.0, 44.0114
26.9794, 23.970, 2012.0, 44.8553
27.012, 23.970, 1999.0, 44.7102
27.0446, 23.970, 2031.0, 45.0666
27.0772, 23.970, 2012.0, 44.8553
27.1098, 23.970, 2081.0, 45.6180
27.1424, 23.970, 1971.0, 44.3959
27.175, 23.970, 2042.0, 45.1885
27.2076, 23.970, 2011.0, 44.8442
27.2402, 23.970, 2014.0, 44.8776
27.2728, 23.970, 2008.0, 44.8107
27.3054, 23.970, 2091.0, 45.7275
27.338, 23.970, 1948.0, 44.1362
27.3706, 23.970, 2096.0, 45.7821
27.4032, 23.970, 2112.0, 45.9565
27.4358, 23.970, 2189.0, 46.7868
27.4684, 23.970, 2186.0, 46.7547
27.501, 23.970, 2156.0, 46.4327
27.5336, 23.970, 2260.0, 47.5395
27.5662, 23.970, 2239.0, 47.3181
27.5988, 23.970, 2269.0, 47.6340
27.6314, 23.970, 2295.0, 47.9062
27.664, 23.970, 2304.0, 48.0000
27.6966, 23.970, 2332.0, 48.2908
27.7292, 23.970, 2281.0, 47.7598
27.7618, 23.970, 2424.0, 49.2341
27.7944, 23.970, 2614.0, 51.1273
27.827, 23.970, 2492.0, 49.9199
27.8596, 23.970, 2638.0, 51.3615
27.8922, 23.970, 2598.0, 50.9706
27.9248, 23.970, 2605.0, 51.0392
27.9574, 23.970, 2692.0, 51.8845
27.99, 23.970, 2743.0, 52.3737
28.0226, 23.970, 2698.0, 51.9423
28.0552, 23.970, 2772.0, 52.6498
28.0878, 23.970, 2663.0, 51.6043
28.1204, 23.970, 2749.0, 52.4309
28.153, 23.970, 2806.0, 52.9717
28.1855, 23.970, 2918.0, 54.0185
28.2181, 23.970, 2743.0, 52.3737
28.2507, 23.970, 2744.0, 52.3832
28.2833, 23.970, 2780.0, 52.7257
28.3159, 23.970, 2718.0, 52.1344
28.3485, 23.970, 2776.0, 52.6878
28.3811, 23.970, 2708.0, 52.0384
28.4137, 23.970, 2648.0, 51.4587
28.4463, 23.970, 2614.0, 51.1273
28.4789, 23.970, 2481.0, 49.8096
28.5115, 23.970, 2500.0, 50.0000
28.5441, 23.970, 2479.0, 49.7896
28.5767, 23.970, 2563.0, 50.6261
28.6093, 23.970, 2488.0, 49.8799
28.6419, 23.970, 2457.0, 49.5681
28.6745, 23.970, 2483.0, 49.8297
28.7071, 23.970, 2358.0, 48.5592
28.7397, 23.970, 2412.0, 49.1121
28.7723, 23.970, 2331.0, 48.2804
28.8049, 23.970, 2271.0, 47.6550
28.8375, 23.970, 2243.0, 47.3603
28.8701, 23.970, 2185.0, 46.7440
28.9027, 23.970, 2179.0, 46.6798
28.9353, 23.970, 2088.0, 45.6946
28.9679, 23.970, 2108.0, 45.9130
29.0005, 23.970, 1975.0, 44.4410
29.0331, 23.970, 1966.0, 44.3396
29.0657, 23.970, 1942.0, 44.0681
29.0983, 23.970, 1863.0, 43.1625
29.1309, 23.970, 1872.0, 43.2666
29.1635, 23.970, 1840.0, 42.8952
29.1961, 23.970, 1927.0, 43.8976
29.2287, 23.970, 1816.0, 42.6146
29.2613, 23.970, 1752.0, 41.8569
29.2939, 23.970, 1896.0, 43.5431
29.3265, 23.970, 1776.0, 42.1426
29.3591, 23.970, 1760.0, 41.9524
29.3917, 23.970, 1794.0, 42.3556
29.4243, 23.970, 1639.0, 40.4846
29.4569, 23.970, 1802.0, 42.4500
29.4895, 23.970, 1809.0, 42.5323
29.5221, 23.970, 1783.0, 42.2256
29.5547, 23.970, 1727.0, 41.5572
29.5873, 23.970, 1700.0, 41.2311
29.6199, 23.970, 1709.0, 41.3401
29.6525, 23.970, 1749.0, 41.8210
29.6851, 23.970, 1660.0, 40.7431
29.7177, 23.970, 1676.0, 40.9390
29.7503, 23.970, 1666.0, 40.8167
29.7829, 23.970, 1627.0, 40.3361
29.8155, 23.970, 1702.0, 41.2553
29.8481, 23.970, 1628.0, 40.3485
29.8807, 23.970, 1559.0, 39.4842
29.9133, 23.970, 1581.0, 39.7618
29.9459, 23.970, 1590.0, 39.8748
29.9785, 23.970, 1574.0, 39.6737
30.0111, 23.970, 1616.0, 40.1995
30.0437, 23.970, 1650.0, 40.6202
30.0763, 23.970, 1577.0, 39.7115
30.1089, 23.970, 1574.0, 39.6737
30.1415, 23.970, 1420.0, 37.6829
30.1741, 23.970, 1428.0, 37.7889
30.2067, 23.970, 1492.0, 38.6264
30.2393, 23.970, 1488.0, 38.5746
30.2719, 23.970, 1462.0, 38.2361
30.3045, 23.970, 1433.0, 37.8550
30.3371, 23.970, 1375.0, 37.0810
30.3697, 23.970, 1361.0, 36.8917
30.4023, 23.970, 1350.0, 36.7423
30.4349, 23.970, 1445.0, 38.0132
30.4675, 23.970, 1471.0, 38.3536
30.5001, 23.970, 1359.0, 36.8646
30.5327, 23.970, 1347.0, 36.7015
30.5653, 23.970, 1397.0, 37.3765
30.5979, 23.970, 1413.0, 37.5899
30.6305, 23.970, 1359.0, 36.8646
30.6631, 23.970, 1346.0, 36.6879
30.6957, 23.970, 1373.0, 37.0540
30.7283, 23.970, 1308.0, 36.1663
30.7609, 23.970, 1381.0, 37.1618
30.7935, 23.970, 1300.0, 36.0555
30.8261, 23.970, 1307.0, 36.1525
30.8587, 23.970, 1355.0, 36.8103
30.8913, 23.970, 1338.0, 36.5787
30.9239, 23.970, 1240.0, 35.2136
30.9565, 23.970, 1350.0, 36.7423
30.9891, 23.970, 1334.0, 36.5240
31.0217, 23.970, 1345.0, 36.6742
31.0543, 23.970, 1334.0, 36.5240
31.0869, 23.970, 1284.0, 35.8329
31.1195, 23.970, 1293.0, 35.9583
31.1521, 23.970, 1272.0, 35.6651
31.1847, 23.970, 1321.0, 36.3456
31.2173, 23.970, 1273.0, 35.6791
31.2499, 23.970, 1342.0, 36.6333
31.2825, 23.970, 1289.0, 35.9026
31.3151, 23.970, 1296.0, 36.0000
31.3477, 23.970, 1324.0, 36.3868
31.3803, 23.970, 1289.0, 35.9026
31.4129, 23.970, 1292.0, 35.9444
31.4455, 23.970, 1245.0, 35.2846
31.4781, 23.970, 1225.0, 35.0000
31.5107, 23.970, 1298.0, 36.0278
31.5433, 23.970, 1348.0, 36.7151
31.5759, 23.970, 1281.0, 35.7911
31.6085, 23.970, 1275.0, 35.7071
31.6411, 23.970, 1341.0, 36.6197
31.6737, 23.970, 1292.0, 35.9444
31.7063, 23.970, 1280.0, 35.7771
31.7389, 23.970, 1290.0, 35.9166
31.7715, 23.970, 1327.0, 36.4280
31.8041, 23.970, 1328.0, 36.4417
31.8367, 23.970, 1395.0, 37.3497
31.8693, 23.970, 1277.0, 35.7351
31.9019, 23.970, 1318.0, 36.3043
31.9345, 23.970, 1270.0, 35.6371
31.9671, 23.970, 1242.0, 35.2420
31.9997, 23.970, 1292.0, 35.9444
32.0323, 23.970, 1282.0, 35.8050
32.0649, 23.970, 1303.0, 36.0971
32.0975, 23.970, 1245.0, 35.2846
32.1301, 23.970, 1365.0, 36.9459
32.1627, 23.970, 1256.0, 35.4401
32.1953, 23.970, 1272.0, 35.6651
32.2279, 23.970, 1279.0, 35.7631
32.2605, 23.970, 1290.0, 35.9166
32.2931, 23.970, 1306.0, 36.1386
32.3257, 23.970, 1265.0, 35.5668
32.3583, 23.970, 1254.0, 35.4119
32.3909, 23.970, 1291.0, 35.9305
32.4235, 23.970, 1367.0, 36.9730
32.4561, 23.970, 1267.0, 35.5949
32.4887, 23.970, 1308.0, 36.1663
32.5213, 23.970, 1300.0, 36.0555
32.5539, 23.970, 1276.0, 35.7211
32.5865, 23.970, 1288.0, 35.8887
32.6191, 23.970, 1239.0, 35.1994
32.6517, 23.970, 1276.0, 35.7211
32.6843, 23.970, 1250.0, 35.3553
32.7169, 23.970, 1257.0, 35.4542
32.7495, 23.970, 1223.0, 34.9714
32.7821, 23.970, 1244.0, 35.2704
32.8147, 23.970, 1259.0, 35.4824
32.8473, 23.970, 1272.0, 35.6651
32.8799, 23.970, 1254.0, 35.4119
32.9125, 23.970, 1273.0, 35.6791
32.9451, 23.970, 1165.0, 34.1321
32.9776, 23.970, 1244.0, 35.2704
33.0102, 23.970, 1268.0, 35.6090
33.0428, 23.970, 1205.0, 34.7131
33.0754, 23.970, 1179.0, 34.3366
33.108, 23.970, 1226.0, 35.0143
33.1406, 23.970, 1227.0, 35.0286
33.1732, 23.970, 1152.0, 33.9411
33.2058, 23.970, 1166.0, 34.1467
33.2384, 23.970, 1213.0, 34.8281
33.271, 23.970, 1171.0, 34.2199
33.3036, 23.970, 1140.0, 33.7639
33.3362, 23.970, 1166.0, 34.1467
33.3688, 23.970, 1078.0, 32.8329
33.4014, 23.970, 1158.0, 34.0294
33.434, 23.970, 1107.0, 33.2716
33.4666, 23.970, 1086.0, 32.9545
33.4992, 23.970, 1067.0, 32.6650
33.5318, 23.970, 1089.0, 33.0000
33.5644, 23.970, 1023.0, 31.9844
33.597, 23.970, 1034.0, 32.1559
33.6296, 23.970, 1090.0, 33.0151
33.6622, 23.970, 1035.0, 32.1714
33.6948, 23.970, 1083.0, 32.9090
33.7274, 23.970, 1022.0, 31.9687
33.76, 23.970, 1057.0, 32.5115
33.7926, 23.970, 987.0, 31.4166
33.8252, 23.970, 978.0, 31.2730
33.8578, 23.970, 1029.0, 32.0780
33.8904, 23.970, 1024.0, 32.0000
33.923, 23.970, 1027.0, 32.0468
33.9556, 23.970, 948.0, 30.7896
33.9882, 23.970, 938.0, 30.6268
34.0208, 23.970, 936.0, 30.5941
34.0534, 23.970, 1016.0, 31.8748
34.086, 23.970, 1025.0, 32.0156
34.1186, 23.970, 946.0, 30.7571
34.1512, 23.970, 975.0, 31.2250
34.1838, 23.970, 972.0, 31.1769
34.2164, 23.970, 980.0, 31.3050
34.249, 23.970, 1017.0, 31.8904
34.2816, 23.970, 951.0, 30.8383
34.3142, 23.970, 954.0, 30.8869
34.3468, 23.970, 948.0, 30.7896
34.3794, 23.970, 968.0, 31.1127
34.412, 23.970, 957.0, 30.9354
34.4446, 23.970, 961.0, 31.0000
34.4772, 23.970, 1008.0, 31.7490
34.5098, 23.970, 937.0, 30.6105
34.5424, 23.970, 963.0, 31.0322
34.575, 23.970, 940.0, 30.6594
34.6076, 23.970, 1002.0, 31.6544
34.6402, 23.970, 961.0, 31.0000
34.6728, 23.970, 931.0, 30.5123
34.7054, 23.970, 937.0, 30.6105
34.738, 23.970, 947.0, 30.7734
34.7706, 23.970, 936.0, 30.5941
34.8032, 23.970, 927.0, 30.4467
34.8358, 23.970, 918.0, 30.2985
34.8684, 23.970, 942.0, 30.6920
34.901, 23.970, 932.0, 30.5287
34.9336, 23.970, 914.0, 30.2324
34.9662, 23.970, 892.0, 29.8664
34.9988, 23.970, 992.0, 31.4960
35.0314, 23.970, 940.0, 30.6594
35.064, 23.970, 959.0, 30.9677
35.0966, 23.970, 917.0, 30.2820
35.1292, 23.970, 970.0, 31.1448
35.1618, 23.970, 916.0, 30.2655
35.1944, 23.970, 952.0, 30.8545
35.227, 23.970, 943.0, 30.7083
35.2596, 23.970, 937.0, 30.6105
35.2922, 23.970, 939.0, 30.6431
35.3248, 23.970, 966.0, 31.0805
35.3574, 23.970, 963.0, 31.0322
35.39, 23.970, 903.0, 30.0500
35.4226, 23.970, 955.0, 30.9031
35.4552, 23.970, 918.0, 30.2985
35.4878, 23.970, 917.0, 30.2820
35.5204, 23.970, 916.0, 30.2655
35.553, 23.970, 880.0, 29.6648
35.5856, 23.970, 864.0, 29.3939
35.6182, 23.970, 891.0, 29.8496
35.6508, 23.970, 868.0, 29.4618
35.6834, 23.970, 904.0, 30.0666
35.716, 23.970, 799.0, 28.2666
35.7486, 23.970, 925.0, 30.4138
35.7812, 23.970, 883.0, 29.7153
35.8138, 23.970, 860.0, 29.3258
35.8464, 23.970, 951.0, 30.8383
35.879, 23.970, 826.0, 28.7402
35.9116, 23.970, 867.0, 29.4449
35.9442, 23.970, 841.0, 29.0000
35.9768, 23.970, 871.0, 29.5127
36.0094, 23.970, 986.0, 31.4006
36.042, 23.970, 897.0, 29.9500
36.0746, 23.970, 870.0, 29.4958
36.1072, 23.970, 856.0, 29.2575
36.1398, 23.970, 868.0, 29.4618
36.1724, 23.970, 831.0, 28.8271
36.205, 23.970, 890.0, 29.8329
36.2376, 23.970, 870.0, 29.4958
36.2702, 23.970, 878.0, 29.6311
36.3028, 23.970, 891.0, 29.8496
36.3354, 23.970, 939.0, 30.6431
36.368, 23.970, 871.0, 29.5127
36.4006, 23.970, 921.0, 30.3480
36.4332, 23.970, 847.0, 29.1033
36.4658, 23.970, 865.0, 29.4109
36.4984, 23.970, 889.0, 29.8161
36.531, 23.970, 929.0, 30.4795
36.5636, 23.970, 891.0, 29.8496
36.5962, 23.970, 888.0, 29.7993
36.6288, 23.970, 859.0, 29.3087
36.6614, 23.970, 924.0, 30.3974
36.694, 23.970, 897.0, 29.9500
36.7266, 23.970, 830.0, 28.8097
36.7592, 23.970, 908.0, 30.1330
36.7918, 23.970, 875.0, 29.5804
36.8244, 23.970, 982.0, 31.3369
36.857, 23.970, 877.0, 29.6142
36.8896, 23.970, 853.0, 29.2062
36.9222, 23.970, 848.0, 29.1204
36.9548, 23.970, 860.0, 29.3258
36.9874, 23.970, 910.0, 30.1662
37.02, 23.970, 916.0, 30.2655
37.0526, 23.970, 960.0, 30.9839
37.0852, 23.970, 881.0, 29.6816
37.1178, 23.970, 887.0, 29.7825
37.1504, 23.970, 934.0, 30.5614
37.183, 23.970, 916.0, 30.2655
37.2156, 23.970, 893.0, 29.8831
37.2482, 23.970, 910.0, 30.1662
37.2808, 23.970, 966.0, 31.0805
37.3134, 23.970, 884.0, 29.7321
37.346, 23.970, 919.0, 30.3150
37.3786, 23.970, 960.0, 30.9839
37.4112, 23.970, 962.0, 31.0161
37.4438, 23.970, 957.0, 30.9354
37.4764, 23.970, 937.0, 30.6105
37.509, 23.970, 969.0, 31.1288
37.5416, 23.970, 878.0, 29.6311
37.5742, 23.970, 996.0, 31.5595
37.6068, 23.970, 1031.0, 32.1092
37.6394, 23.970, 959.0, 30.9677
37.672, 23.970, 946.0, 30.7571
37.7046, 23.970, 981.0, 31.3209
37.7372, 23.970, 919.0, 30.3150
37.7697, 23.970, 1015.0, 31.8591
37.8023, 23.970, 949.0, 30.8058
37.8349, 23.970, 1037.0, 32.2025
37.8675, 23.970, 1029.0, 32.0780
37.9001, 23.970, 1031.0, 32.1092
37.9327, 23.970, 1021.0, 31.9531
37.9653, 23.970, 1009.0, 31.7648
37.9979, 23.970, 1075.0, 32.7872
38.0305, 23.970, 1088.0, 32.9848
38.0631, 23.970, 1025.0, 32.0156
38.0957, 23.970, 1064.0, 32.6190
38.1283, 23.970, 1107.0, 33.2716
38.1609, 23.970, 1053.0, 32.4500
38.1935, 23.970, 1108.0, 33.2866
38.2261, 23.970, 1115.0, 33.3916
38.2587, 23.970, 1086.0, 32.9545
38.2913, 23.970, 1147.0, 33.8674
38.3239, 23.970, 1088.0, 32.9848
38.3565, 23.970, 1059.0, 32.5423
38.3891, 23.970, 1071.0, 32.7261
38.4217, 23.970, 1055.0, 32.4808
38.4543, 23.970, 1059.0, 32.5423
38.4869, 23.970, 1068.0, 32.6803
38.5195, 23.970, 1058.0, 32.5269
38.5521, 23.970, 1054.0, 32.4654
38.5847, 23.970, 1072.0, 32.7414
38.6173, 23.970, 1151.0, 33.9264
38.6499, 23.970, 1067.0, 32.6650
38.6825, 23.970, 1111.0, 33.3317
38.7151, 23.970, 1032.0, 32.1248
38.7477, 23.970, 1079.0, 32.8481
38.7803, 23.970, 1067.0, 32.6650
38.8129, 23.970, 1104.0, 33.2265
38.8455, 23.970, 1039.0, 32.2335
38.8781, 23.970, 1043.0, 32.2955
38.9107, 23.970, 1092.0, 33.0454
38.9433, 23.970, 1006.0, 31.7175
38.9759, 23.970, 1039.0, 32.2335
39.0085, 23.970, 1038.0, 32.2180
39.0411, 23.970, 1026.0, 32.0312
39.0737, 23.970, 1053.0, 32.4500
39.1063, 23.970, 937.0, 30.6105
39.1389, 23.970, 964.0, 31.0483
39.1715, 23.970, 931.0, 30.5123
39.2041, 23.970, 977.0, 31.2570
39.2367, 23.970, 920.0, 30.3315
39.2693, 23.970, 948.0, 30.7896
39.3019, 23.970, 1009.0, 31.7648
39.3345, 23.970, 873.0, 29.5466
39.3671, 23.970, 933.0, 30.5450
39.3997, 23.970, 951.0, 30.8383
39.4323, 23.970, 883.0, 29.7153
39.4649, 23.970, 879.0, 29.6479
39.4975, 23.970, 991.0, 31.4802
39.5301, 23.970, 936.0, 30.5941
39.5627, 23.970, 948.0, 30.7896
39.5953, 23.970, 934.0, 30.5614
39.6279, 23.970, 919.0, 30.3150
39.6605, 23.970, 969.0, 31.1288
39.6931, 23.970, 929.0, 30.4795
39.7257, 23.970, 929.0, 30.4795
39.7583, 23.970, 937.0, 30.6105
39.7909, 23.970, 969.0, 31.1288
39.8235, 23.970, 938.0, 30.6268
39.8561, 23.970, 928.0, 30.4631
39.8887, 23.970, 915.0, 30.2490
39.9213, 23.970, 895.0, 29.9166
39.9539, 23.970, 939.0, 30.6431
39.9865, 23.970, 937.0, 30.6105
40.0191, 23.970, 926.0, 30.4302
40.0517, 23.970, 916.0, 30.2655
40.0843, 23.970, 943.0, 30.7083
40.1169, 23.970, 994.0, 31.5278
40.1495, 23.970, 972.0, 31.1769
40.1821, 23.970, 907.0, 30.1164
40.2147, 23.970, 977.0, 31.2570
40.2473, 23.970, 935.0, 30.5778
40.2799, 23.970, 905.0, 30.0832
40.3125, 23.970, 983.0, 31.3528
40.3451, 23.970, 999.0, 31.6070
40.3777, 23.970, 923.0, 30.3809
40.4103, 23.970, 986.0, 31.4006
40.4429, 23.970, 937.0, 30.6105
40.4755, 23.970, 888.0, 29.7993
40.5081, 23.970, 920.0, 30.3315
40.5407, 23.970, 966.0, 31.0805
40.5733, 23.970, 957.0, 30.9354
40.6059, 23.970, 938.0, 30.6268
40.6385, 23.970, 960.0, 30.9839
40.6711, 23.970, 918.0, 30.2985
40.7037, 23.970, 971.0, 31.1609
40.7363, 23.970, 886.0, 29.7658
40.7689, 23.970, 874.0, 29.5635
40.8015, 23.970, 898.0, 29.9666
40.8341, 23.970, 969.0, 31.1288
40.8667, 23.970, 961.0, 31.0000
40.8993, 23.970, 1013.0, 31.8277
40.9319, 23.970, 890.0, 29.8329
40.9645, 23.970, 905.0, 30.0832
40.9971, 23.970, 885.0, 29.7489
41.0297, 23.970, 894.0, 29.8998
41.0623, 23.970, 943.0, 30.7083
41.0949, 23.970, 917.0, 30.2820
41.1275, 23.970, 951.0, 30.8383
41.1601, 23.970, 896.0, 29.9333
41.1927, 23.970, 903.0, 30.0500
41.2253, 23.970, 845.0, 29.0689
41.2579, 23.970, 887.0, 29.7825
41.2905, 23.970, 861.0, 29.3428
41.3231, 23.970, 918.0, 30.2985
41.3557, 23.970, 916.0, 30.2655
41.3883, 23.970, 931.0, 30.5123
41.4209, 23.970, 868.0, 29.4618
41.4535, 23.970, 856.0, 29.2575
41.4861, 23.970, 919.0, 30.3150
41.5187, 23.970, 825.0, 28.7228
41.5513, 23.970, 849.0, 29.1376
41.5839, 23.970, 880.0, 29.6648
41.6165, 23.970, 841.0, 29.0000
41.6491, 23.970, 844.0, 29.0517
41.6817, 23.970, 887.0, 29.7825
41.7143, 23.970, 821.0, 28.6531
41.7469, 23.970, 888.0, 29.7993
41.7795, 23.970, 808.0, 28.4253
41.8121, 23.970, 853.0, 29.2062
41.8447, 23.970, 852.0, 29.1890
41.8773, 23.970, 873.0, 29.5466
41.9099, 23.970, 844.0, 29.0517
41.9425, 23.970, 807.0, 28.4077
41.9751, 23.970, 846.0, 29.0861
42.0077, 23.970, 856.0, 29.2575
42.0403, 23.970, 865.0, 29.4109
42.0729, 23.970, 837.0, 28.9310
42.1055, 23.970, 842.0, 29.0172
42.1381, 23.970, 845.0, 29.0689
42.1707, 23.970, 837.0, 28.9310
42.2033, 23.970, 812.0, 28.4956
42.2359, 23.970, 846.0, 29.0861
42.2685, 23.970, 841.0, 29.0000
42.3011, 23.970, 867.0, 29.4449
42.3337, 23.970, 945.0, 30.7409
42.3663, 23.970, 903.0, 30.0500
42.3989, 23.970, 949.0, 30.8058
42.4315, 23.970, 877.0, 29.6142
42.4641, 23.970, 951.0, 30.8383
42.4967, 23.970, 898.0, 29.9666
42.5293, 23.970, 833.0, 28.8617
42.5618, 23.970, 936.0, 30.5941
42.5944, 23.970, 861.0, 29.3428
42.627, 23.970, 880.0, 29.6648
42.6596, 23.970, 870.0, 29.4958
42.6922, 23.970, 801.0, 28.3019
42.7248, 23.970, 821.0, 28.6531
42.7574, 23.970, 850.0, 29.1548
42.79, 23.970, 798.0, 28.2489
42.8226, 23.970, 777.0, 27.8747
42.8552, 23.970, 761.0, 27.5862
42.8878, 23.970, 801.0, 28.3019
42.9204, 23.970, 788.0, 28.0713
42.953, 23.970, 794.0, 28.1780
42.9856, 23.970, 854.0, 29.2233
43.0182, 23.970, 753.0, 27.4408
43.0508, 23.970, 804.0, 28.3549
43.0834, 23.970, 780.0, 27.9285
43.116, 23.970, 803.0, 28.3373
43.1486, 23.970, 812.0, 28.4956
43.1812, 23.970, 751.0, 27.4044
43.2138, 23.970, 768.0, 27.7128
43.2464, 23.970, 785.0, 28.0179
43.279, 23.970, 778.0, 27.8927
43.3116, 23.970, 814.0, 28.5307
43.3442, 23.970, 747.0, 27.3313
43.3768, 23.970, 803.0, 28.3373
43.4094, 23.970, 818.0, 28.6007
43.442, 23.970, 803.0, 28.3373
43.4746, 23.970, 825.0, 28.7228
43.5072, 23.970, 770.0, 27.7489
43.5398, 23.970, 805.0, 28.3725
43.5724, 23.970, 802.0, 28.3196
43.605, 23.970, 756.0, 27.4955
43.6376, 23.970, 811.0, 28.4781
43.6702, 23.970, 843.0, 29.0345
43.7028, 23.970, 795.0, 28.1957
43.7354, 23.970, 841.0, 29.0000
43.768, 23.970, 818.0, 28.6007
43.8006, 23.970, 800.0, 28.2843
43.8332, 23.970, 803.0, 28.3373
43.8658, 23.970, 805.0, 28.3725
43.8984, 23.970, 792.0, 28.1425
43.931, 23.970, 775.0, 27.8388
43.9636, 23.970, 804.0, 28.3549
43.9962, 23.970, 776.0, 27.8568
44.0288, 23.970, 799.0, 28.2666
44.0614, 23.970, 791.0, 28.1247
44.094, 23.970, 779.0, 27.9106
44.1266, 23.970, 800.0, 28.2843
44.1592, 23.970, 767.0, 27.6948
44.1918, 23.970, 773.0, 27.8029
44.2244, 23.970, 784.0, 28.0000
44.257, 23.970, 746.0, 27.3130
44.2896, 23.970, 786.0, 28.0357
44.3222, 23.970, 796.0, 28.2135
44.3548, 23.970, 778.0, 27.8927
44.3874, 23.970, 799.0, 28.2666
44.42, 23.970, 775.0, 27.8388
44.4526, 23.970, 775.0, 27.8388
44.4852, 23.970, 816.0, 28.5657
44.5178, 23.970, 784.0, 28.0000
44.5504, 23.970, 817.0, 28.5832
44.583, 23.970, 850.0, 29.1548
44.6156, 23.970, 795.0, 28.1957
44.6482, 23.970, 732.0, 27.0555
44.6808, 23.970, 793.0, 28.1603
44.7134, 23.970, 740.0, 27.2029
44.746, 23.970, 759.0, 27.5500
44.7786, 23.970, 765.0, 27.6586
44.8112, 23.970, 816.0, 28.5657
44.8438, 23.970, 822.0, 28.6705
44.8764, 23.970, 797.0, 28.2312
44.909, 23.970, 761.0, 27.5862
44.9416, 23.970, 779.0, 27.9106
44.9742, 23.970, 762.0, 27.6043
45.0068, 23.970, 760.0, 27.5681
45.0394, 23.970, 720.0, 26.8328
45.072, 23.970, 781.0, 27.9464
45.1046, 23.970, 800.0, 28.2843
45.1372, 23.970, 747.0, 27.3313
45.1698, 23.970, 748.0, 27.3496
45.2024, 23.970, 810.0, 28.4605
45.235, 23.970, 727.0, 26.9629
45.2676, 23.970, 768.0, 27.7128
45.3002, 23.970, 781.0, 27.9464
45.3328, 23.970, 774.0, 27.8209
45.3654, 23.970, 776.0, 27.8568
45.398, 23.970, 775.0, 27.8388
45.4306, 23.970, 733.0, 27.0740
45.4632, 23.970, 825.0, 28.7228
45.4958, 23.970, 799.0, 28.2666
45.5284, 23.970, 778.0, 27.8927
45.561, 23.970, 828.0, 28.7750
45.5936, 23.970, 802.0, 28.3196
45.6262, 23.970, 768.0, 27.7128
45.6588, 23.970, 773.0, 27.8029
45.6914, 23.970, 796.0, 28.2135
45.724, 23.970, 713.0, 26.7021
45.7566, 23.970, 769.0, 27.7308
45.7892, 23.970, 812.0, 28.4956
45.8218, 23.970, 780.0, 27.9285
45.8544, 23.970, 816.0, 28.5657
45.887, 23.970, 804.0, 28.3549
45.9196, 23.970, 798.0, 28.2489
45.9522, 23.970, 792.0, 28.1425
45.9848, 23.970, 763.0, 27.6225
46.0174, 23.970, 809.0, 28.4429
46.05, 23.970, 821.0, 28.6531
46.0826, 23.970, 882.0, 29.6985
46.1152, 23.970, 830.0, 28.8097
46.1478, 23.970, 801.0, 28.3019
46.1804, 23.970, 845.0, 29.0689
46.213, 23.970, 837.0, 28.9310
46.2456, 23.970, 837.0, 28.9310
46.2782, 23.970, 860.0, 29.3258
46.3108, 23.970, 820.0, 28.6356
46.3434, 23.970, 837.0, 28.9310
46.376, 23.970, 947.0, 30.7734
46.4086, 23.970, 894.0, 29.8998
46.4412, 23.970, 853.0, 29.2062
46.4738, 23.970, 943.0, 30.7083
46.5064, 23.970, 903.0, 30.0500
46.539, 23.970, 1016.0, 31.8748
46.5716, 23.970, 1010.0, 31.7805
46.6042, 23.970, 968.0, 31.1127
46.6368, 23.970, 1047.0, 32.3574
46.6694, 23.970, 971.0, 31.1609
46.702, 23.970, 1026.0, 32.0312
46.7346, 23.970, 1003.0, 31.6702
46.7672, 23.970, 1008.0, 31.7490
46.7998, 23.970, 1076.0, 32.8024
46.8324, 23.970, 1035.0, 32.1714
46.865, 23.970, 1077.0, 32.8177
46.8976, 23.970, 1044.0, 32.3110
46.9302, 23.970, 1026.0, 32.0312
46.9628, 23.970, 1047.0, 32.3574
46.9954, 23.970, 1066.0, 32.6497
47.028, 23.970, 1028.0, 32.0624
47.0606, 23.970, 955.0, 30.9031
47.0932, 23.970, 954.0, 30.8869
47.1258, 23.970, 948.0, 30.7896
47.1584, 23.970, 927.0, 30.4467
47.191, 23.970, 871.0, 29.5127
47.2236, 23.970, 858.0, 29.2916
47.2562, 23.970, 889.0, 29.8161
47.2888, 23.970, 862.0, 29.3598
47.3214, 23.970, 921.0, 30.3480
47.3539, 23.970, 861.0, 29.3428
47.3865, 23.970, 914.0, 30.2324
47.4191, 23.970, 955.0, 30.9031
47.4517, 23.970, 879.0, 29.6479
47.4843, 23.970, 912.0, 30.1993
47.5169, 23.970, 897.0, 29.9500
47.5495, 23.970, 957.0, 30.9354
47.5821, 23.970, 930.0, 30.4959
47.6147, 23.970, 973.0, 31.1929
47.6473, 23.970, 905.0, 30.0832
47.6799, 23.970, 907.0, 30.1164
47.7125, 23.970, 917.0, 30.2820
47.7451, 23.970, 941.0, 30.6757
47.7777, 23.970, 931.0, 30.5123
47.8103, 23.970, 938.0, 30.6268
47.8429, 23.970, 929.0, 30.4795
47.8755, 23.970, 954.0, 30.8869
47.9081, 23.970, 924.0, 30.3974
47.9407, 23.970, 998.0, 31.5911
47.9733, 23.970, 895.0, 29.9166
48.0059, 23.970, 907.0, 30.1164
48.0385, 23.970, 819.0, 28.6182
48.0711, 23.970, 772.0, 27.7849
48.1037, 23.970, 805.0, 28.3725
48.1363, 23.970, 780.0, 27.9285
48.1689, 23.970, 750.0, 27.3861
48.2015, 23.970, 747.0, 27.3313
48.2341, 23.970, 727.0, 26.9629
48.2667, 23.970, 744.0, 27.2764
48.2993, 23.970, 738.0, 27.1662
48.3319, 23.970, 777.0, 27.8747
48.3645, 23.970, 770.0, 27.7489
48.3971, 23.970, 764.0, 27.6405
48.4297, 23.970, 766.0, 27.6767
48.4623, 23.970, 718.0, 26.7955
48.4949, 23.970, 682.0, 26.1151
48.5275, 23.970, 700.0, 26.4575
48.5601, 23.970, 715.0, 26.7395
48.5927, 23.970, 697.0, 26.4008
48.6253, 23.970, 755.0, 27.4773
48.6579, 23.970, 706.0, 26.5707
48.6905, 23.970, 696.0, 26.3818
48.7231, 23.970, 697.0, 26.4008
48.7557, 23.970, 678.0, 26.0384
48.7883, 23.970, 751.0, 27.4044
48.8209, 23.970, 737.0, 27.1477
48.8535, 23.970, 730.0, 27.0185
48.8861, 23.970, 739.0, 27.1846
48.9187, 23.970, 721.0, 26.8514
48.9513, 23.970, 745.0, 27.2947
48.9839, 23.970, 703.0, 26.5141
49.0165, 23.970, 700.0, 26.4575
49.0491, 23.970, 737.0, 27.1477
49.0817, 23.970, 738.0, 27.1662
49.1143, 23.970, 699.0, 26.4386
49.1469, 23.970, 702.0, 26.4953
49.1795, 23.970, 721.0, 26.8514
49.2121, 23.970, 737.0, 27.1477
49.2447, 23.970, 730.0, 27.0185
49.2773, 23.970, 724.0, 26.9072
49.3099, 23.970, 701.0, 26.4764
49.3425, 23.970, 698.0, 26.4197
49.3751, 23.970, 711.0, 26.6646
49.4077, 23.970, 666.0, 25.8070
49.4403, 23.970, 703.0, 26.5141
49.4729, 23.970, 685.0, 26.1725
49.5055, 23.970, 728.0, 26.9815
49.5381, 23.970, 649.0, 25.4755
49.5707, 23.970, 687.0, 26.2107
49.6033, 23.970, 645.0, 25.3969
49.6359, 23.970, 626.0, 25.0200
49.6685, 23.970, 692.0, 26.3059
49.7011, 23.970, 757.0, 27.5136
49.7337, 23.970, 680.0, 26.0768
49.7663, 23.970, 721.0, 26.8514
49.7989, 23.970, 650.0, 25.4951
49.8315, 23.970, 685.0, 26.1725
49.8641, 23.970, 748.0, 27.3496
49.8967, 23.970, 706.0, 26.5707
49.9293, 23.970, 679.0, 26.0576
49.9619, 23.970, 700.0, 26.4575
49.9945, 23.970, 692.0, 26.3059