File: data/DSC/501024.csv
[Measurement conditions]
Sample identification,501024
Comment,
Anode material,Cu
K-Alpha1 wavelength,1.5406
K-Alpha2 wavelength,1.54443
Ratio K-Alpha2/K-Alpha1,0.500
Divergence slit,Fixed,0.38mm
Monochromator used,NO
Generator voltage, 40
Tube current, 15
File date and time,26/Feb/2025 10:49
Unit cell,
h k l, 0 0 0
Scan axis,Gonio
Scan range,5.002,49.9999
Scan step size,0.0108664
No. of points, 4141
Scan type,CONTINUOUS
Time per step,23.970
[Scan points]
Angle, TimePerStep, Intensity, ESD
5.00743, 23.970, 1218.0, 34.8999
5.04003, 23.970, 1253.0, 35.3977
5.07263, 23.970, 1332.0, 36.4966
5.10523, 23.970, 1289.0, 35.9026
5.13783, 23.970, 1311.0, 36.2077
5.17043, 23.970, 1318.0, 36.3043
5.20303, 23.970, 1365.0, 36.9459
5.23563, 23.970, 1377.0, 37.1080
5.26823, 23.970, 1303.0, 36.0971
5.30083, 23.970, 1414.0, 37.6032
5.33343, 23.970, 1372.0, 37.0405
5.36603, 23.970, 1383.0, 37.1887
5.39863, 23.970, 1379.0, 37.1349
5.43122, 23.970, 1400.0, 37.4166
5.46382, 23.970, 1404.0, 37.4700
5.49642, 23.970, 1439.0, 37.9342
5.52902, 23.970, 1406.0, 37.4967
5.56162, 23.970, 1444.0, 38.0000
5.59422, 23.970, 1454.0, 38.1314
5.62682, 23.970, 1517.0, 38.9487
5.65942, 23.970, 1539.0, 39.2301
5.69202, 23.970, 1535.0, 39.1791
5.72462, 23.970, 1477.0, 38.4318
5.75722, 23.970, 1585.0, 39.8121
5.78982, 23.970, 1599.0, 39.9875
5.82242, 23.970, 1542.0, 39.2683
5.85502, 23.970, 1602.0, 40.0250
5.88761, 23.970, 1633.0, 40.4104
5.92021, 23.970, 1565.0, 39.5601
5.95281, 23.970, 1617.0, 40.2119
5.98541, 23.970, 1665.0, 40.8044
6.01801, 23.970, 1588.0, 39.8497
6.05061, 23.970, 1602.0, 40.0250
6.08321, 23.970, 1594.0, 39.9249
6.11581, 23.970, 1609.0, 40.1123
6.14841, 23.970, 1731.0, 41.6053
6.18101, 23.970, 1720.0, 41.4729
6.21361, 23.970, 1720.0, 41.4729
6.24621, 23.970, 1658.0, 40.7185
6.27881, 23.970, 1744.0, 41.7612
6.31141, 23.970, 1799.0, 42.4146
6.34401, 23.970, 1749.0, 41.8210
6.3766, 23.970, 1859.0, 43.1161
6.4092, 23.970, 1712.0, 41.3763
6.4418, 23.970, 1760.0, 41.9524
6.4744, 23.970, 1818.0, 42.6380
6.507, 23.970, 1850.0, 43.0116
6.5396, 23.970, 1837.0, 42.8602
6.5722, 23.970, 1785.0, 42.2493
6.6048, 23.970, 1867.0, 43.2088
6.6374, 23.970, 1861.0, 43.1393
6.67, 23.970, 1828.0, 42.7551
6.7026, 23.970, 1807.0, 42.5088
6.7352, 23.970, 1876.0, 43.3128
6.7678, 23.970, 1867.0, 43.2088
6.8004, 23.970, 1847.0, 42.9767
6.833, 23.970, 1860.0, 43.1277
6.86559, 23.970, 1821.0, 42.6732
6.89819, 23.970, 1898.0, 43.5660
6.93079, 23.970, 1946.0, 44.1135
6.96339, 23.970, 1833.0, 42.8135
6.99599, 23.970, 1981.0, 44.5084
7.02859, 23.970, 1970.0, 44.3847
7.06119, 23.970, 1961.0, 44.2832
7.09379, 23.970, 1946.0, 44.1135
7.12639, 23.970, 1949.0, 44.1475
7.15899, 23.970, 1999.0, 44.7102
7.19159, 23.970, 1876.0, 43.3128
7.22419, 23.970, 1950.0, 44.1588
7.25679, 23.970, 2070.0, 45.4973
7.28939, 23.970, 1893.0, 43.5086
7.32198, 23.970, 1974.0, 44.4297
7.35458, 23.970, 1954.0, 44.2041
7.38718, 23.970, 2052.0, 45.2990
7.41978, 23.970, 1955.0, 44.2154
7.45238, 23.970, 2056.0, 45.3431
7.48498, 23.970, 1982.0, 44.5197
7.51758, 23.970, 2073.0, 45.5302
7.55018, 23.970, 2022.0, 44.9667
7.58278, 23.970, 2001.0, 44.7325
7.61538, 23.970, 1983.0, 44.5309
7.64798, 23.970, 1957.0, 44.2380
7.68058, 23.970, 1985.0, 44.5533
7.71318, 23.970, 2074.0, 45.5412
7.74578, 23.970, 2091.0, 45.7275
7.77838, 23.970, 2001.0, 44.7325
7.81097, 23.970, 2094.0, 45.7602
7.84357, 23.970, 2038.0, 45.1442
7.87617, 23.970, 2125.0, 46.0977
7.90877, 23.970, 2082.0, 45.6289
7.94137, 23.970, 2079.0, 45.5961
7.97397, 23.970, 2002.0, 44.7437
8.00657, 23.970, 2098.0, 45.8039
8.03917, 23.970, 2029.0, 45.0444
8.07177, 23.970, 1996.0, 44.6766
8.10437, 23.970, 2157.0, 46.4435
8.13697, 23.970, 2156.0, 46.4327
8.16957, 23.970, 2093.0, 45.7493
8.20217, 23.970, 2091.0, 45.7275
8.23477, 23.970, 2090.0, 45.7165
8.26737, 23.970, 2001.0, 44.7325
8.29996, 23.970, 2124.0, 46.0869
8.33256, 23.970, 2095.0, 45.7712
8.36516, 23.970, 2118.0, 46.0217
8.39776, 23.970, 2028.0, 45.0333
8.43036, 23.970, 2034.0, 45.0999
8.46296, 23.970, 2079.0, 45.5961
8.49556, 23.970, 2092.0, 45.7384
8.52816, 23.970, 2059.0, 45.3762
8.56076, 23.970, 2166.0, 46.5403
8.59336, 23.970, 2046.0, 45.2327
8.62596, 23.970, 2125.0, 46.0977
8.65856, 23.970, 2063.0, 45.4203
8.69116, 23.970, 2189.0, 46.7868
8.72376, 23.970, 2063.0, 45.4203
8.75636, 23.970, 2095.0, 45.7712
8.78895, 23.970, 2113.0, 45.9674
8.82155, 23.970, 2149.0, 46.3573
8.85415, 23.970, 2135.0, 46.2061
8.88675, 23.970, 2099.0, 45.8148
8.91935, 23.970, 2218.0, 47.0956
8.95195, 23.970, 2088.0, 45.6946
8.98455, 23.970, 2097.0, 45.7930
9.01715, 23.970, 2169.0, 46.5725
9.04975, 23.970, 2202.0, 46.9255
9.08235, 23.970, 2154.0, 46.4112
9.11495, 23.970, 2073.0, 45.5302
9.14755, 23.970, 2097.0, 45.7930
9.18015, 23.970, 2178.0, 46.6690
9.21275, 23.970, 2080.0, 45.6070
9.24534, 23.970, 2044.0, 45.2106
9.27794, 23.970, 2075.0, 45.5522
9.31054, 23.970, 2088.0, 45.6946
9.34314, 23.970, 1968.0, 44.3621
9.37574, 23.970, 2110.0, 45.9347
9.40834, 23.970, 2091.0, 45.7275
9.44094, 23.970, 2084.0, 45.6508
9.47354, 23.970, 2107.0, 45.9021
9.50614, 23.970, 2082.0, 45.6289
9.53874, 23.970, 2127.0, 46.1194
9.57134, 23.970, 2122.0, 46.0652
9.60394, 23.970, 2243.0, 47.3603
9.63654, 23.970, 2206.0, 46.9681
9.66914, 23.970, 2087.0, 45.6837
9.70174, 23.970, 2140.0, 46.2601
9.73433, 23.970, 2055.0, 45.3321
9.76693, 23.970, 1943.0, 44.0795
9.79953, 23.970, 2104.0, 45.8694
9.83213, 23.970, 2128.0, 46.1303
9.86473, 23.970, 2113.0, 45.9674
9.89733, 23.970, 1986.0, 44.5646
9.92993, 23.970, 2103.0, 45.8585
9.96253, 23.970, 2095.0, 45.7712
9.99513, 23.970, 2097.0, 45.7930
10.0277, 23.970, 2050.0, 45.2769
10.0603, 23.970, 2125.0, 46.0977
10.0929, 23.970, 2003.0, 44.7549
10.1255, 23.970, 2122.0, 46.0652
10.1581, 23.970, 2058.0, 45.3652
10.1907, 23.970, 2005.0, 44.7772
10.2233, 23.970, 2048.0, 45.2548
10.2559, 23.970, 2062.0, 45.4093
10.2885, 23.970, 2152.0, 46.3897
10.3211, 23.970, 2081.0, 45.6180
10.3537, 23.970, 2087.0, 45.6837
10.3863, 23.970, 2102.0, 45.8476
10.4189, 23.970, 2052.0, 45.2990
10.4515, 23.970, 2166.0, 46.5403
10.4841, 23.970, 2100.0, 45.8258
10.5167, 23.970, 1972.0, 44.4072
10.5493, 23.970, 2045.0, 45.2217
10.5819, 23.970, 2016.0, 44.8999
10.6145, 23.970, 2004.0, 44.7661
10.6471, 23.970, 2119.0, 46.0326
10.6797, 23.970, 2118.0, 46.0217
10.7123, 23.970, 2143.0, 46.2925
10.7449, 23.970, 2051.0, 45.2880
10.7775, 23.970, 2034.0, 45.0999
10.8101, 23.970, 2096.0, 45.7821
10.8427, 23.970, 1996.0, 44.6766
10.8753, 23.970, 2134.0, 46.1952
10.9079, 23.970, 2037.0, 45.1331
10.9405, 23.970, 2067.0, 45.4643
10.9731, 23.970, 2077.0, 45.5741
11.0057, 23.970, 2018.0, 44.9222
11.0383, 23.970, 2089.0, 45.7056
11.0709, 23.970, 2023.0, 44.9778
11.1035, 23.970, 2171.0, 46.5940
11.1361, 23.970, 2069.0, 45.4863
11.1687, 23.970, 2128.0, 46.1303
11.2013, 23.970, 2029.0, 45.0444
11.2339, 23.970, 2153.0, 46.4004
11.2665, 23.970, 2080.0, 45.6070
11.2991, 23.970, 2047.0, 45.2438
11.3317, 23.970, 2108.0, 45.9130
11.3643, 23.970, 1969.0, 44.3734
11.3969, 23.970, 2051.0, 45.2880
11.4295, 23.970, 2082.0, 45.6289
11.4621, 23.970, 2080.0, 45.6070
11.4947, 23.970, 2136.0, 46.2169
11.5273, 23.970, 2003.0, 44.7549
11.5599, 23.970, 2038.0, 45.1442
11.5925, 23.970, 2161.0, 46.4866
11.6251, 23.970, 2178.0, 46.6690
11.6577, 23.970, 2063.0, 45.4203
11.6903, 23.970, 2081.0, 45.6180
11.7229, 23.970, 2043.0, 45.1996
11.7555, 23.970, 2171.0, 46.5940
11.7881, 23.970, 2043.0, 45.1996
11.8207, 23.970, 2077.0, 45.5741
11.8533, 23.970, 2041.0, 45.1774
11.8859, 23.970, 2012.0, 44.8553
11.9185, 23.970, 2074.0, 45.5412
11.9511, 23.970, 2089.0, 45.7056
11.9837, 23.970, 2244.0, 47.3709
12.0163, 23.970, 2149.0, 46.3573
12.0489, 23.970, 1985.0, 44.5533
12.0815, 23.970, 2124.0, 46.0869
12.1141, 23.970, 2133.0, 46.1844
12.1467, 23.970, 2229.0, 47.2123
12.1793, 23.970, 2213.0, 47.0425
12.2119, 23.970, 2164.0, 46.5188
12.2445, 23.970, 2190.0, 46.7974
12.2771, 23.970, 2078.0, 45.5851
12.3097, 23.970, 2147.0, 46.3357
12.3423, 23.970, 2132.0, 46.1736
12.3749, 23.970, 2168.0, 46.5618
12.4075, 23.970, 2117.0, 46.0109
12.4401, 23.970, 2110.0, 45.9347
12.4727, 23.970, 2193.0, 46.8295
12.5053, 23.970, 2159.0, 46.4650
12.5379, 23.970, 2243.0, 47.3603
12.5705, 23.970, 2224.0, 47.1593
12.6031, 23.970, 2164.0, 46.5188
12.6357, 23.970, 2307.0, 48.0312
12.6683, 23.970, 2280.0, 47.7493
12.7009, 23.970, 2210.0, 47.0106
12.7335, 23.970, 2181.0, 46.7012
12.7661, 23.970, 2257.0, 47.5079
12.7987, 23.970, 2222.0, 47.1381
12.8313, 23.970, 2220.0, 47.1169
12.8639, 23.970, 2257.0, 47.5079
12.8965, 23.970, 2233.0, 47.2546
12.9291, 23.970, 2224.0, 47.1593
12.9617, 23.970, 2263.0, 47.5710
12.9943, 23.970, 2188.0, 46.7761
13.0269, 23.970, 2297.0, 47.9270
13.0595, 23.970, 2235.0, 47.2758
13.0921, 23.970, 2334.0, 48.3115
13.1247, 23.970, 2291.0, 47.8644
13.1573, 23.970, 2266.0, 47.6025
13.1899, 23.970, 2232.0, 47.2440
13.2225, 23.970, 2292.0, 47.8748
13.2551, 23.970, 2284.0, 47.7912
13.2877, 23.970, 2304.0, 48.0000
13.3203, 23.970, 2428.0, 49.2747
13.3529, 23.970, 2407.0, 49.0612
13.3855, 23.970, 2287.0, 47.8226
13.4181, 23.970, 2364.0, 48.6210
13.4507, 23.970, 2426.0, 49.2544
13.4833, 23.970, 2356.0, 48.5386
13.5159, 23.970, 2434.0, 49.3356
13.5485, 23.970, 2356.0, 48.5386
13.5811, 23.970, 2406.0, 49.0510
13.6137, 23.970, 2312.0, 48.0833
13.6463, 23.970, 2491.0, 49.9099
13.6789, 23.970, 2463.0, 49.6286
13.7115, 23.970, 2431.0, 49.3052
13.7441, 23.970, 2537.0, 50.3686
13.7767, 23.970, 2402.0, 49.0102
13.8092, 23.970, 2493.0, 49.9300
13.8418, 23.970, 2543.0, 50.4282
13.8744, 23.970, 2504.0, 50.0400
13.907, 23.970, 2508.0, 50.0799
13.9396, 23.970, 2558.0, 50.5767
13.9722, 23.970, 2512.0, 50.1199
14.0048, 23.970, 2659.0, 51.5655
14.0374, 23.970, 2707.0, 52.0288
14.07, 23.970, 2689.0, 51.8556
14.1026, 23.970, 2616.0, 51.1468
14.1352, 23.970, 2542.0, 50.4183
14.1678, 23.970, 2606.0, 51.0490
14.2004, 23.970, 2580.0, 50.7937
14.233, 23.970, 2635.0, 51.3323
14.2656, 23.970, 2714.0, 52.0961
14.2982, 23.970, 2727.0, 52.2207
14.3308, 23.970, 2736.0, 52.3068
14.3634, 23.970, 2705.0, 52.0096
14.396, 23.970, 2759.0, 52.5262
14.4286, 23.970, 2684.0, 51.8073
14.4612, 23.970, 2772.0, 52.6498
14.4938, 23.970, 2745.0, 52.3927
14.5264, 23.970, 2820.0, 53.1037
14.559, 23.970, 2740.0, 52.3450
14.5916, 23.970, 2755.0, 52.4881
14.6242, 23.970, 2832.0, 53.2165
14.6568, 23.970, 2832.0, 53.2165
14.6894, 23.970, 2801.0, 52.9245
14.722, 23.970, 2981.0, 54.5985
14.7546, 23.970, 2907.0, 53.9166
14.7872, 23.970, 2865.0, 53.5257
14.8198, 23.970, 2952.0, 54.3323
14.8524, 23.970, 3021.0, 54.9636
14.885, 23.970, 2916.0, 54.0000
14.9176, 23.970, 2969.0, 54.4885
14.9502, 23.970, 2956.0, 54.3691
14.9828, 23.970, 3008.0, 54.8452
15.0154, 23.970, 3146.0, 56.0892
15.048, 23.970, 3008.0, 54.8452
15.0806, 23.970, 3068.0, 55.3895
15.1132, 23.970, 3176.0, 56.3560
15.1458, 23.970, 3093.0, 55.6147
15.1784, 23.970, 3164.0, 56.2494
15.211, 23.970, 3095.0, 55.6327
15.2436, 23.970, 3151.0, 56.1338
15.2762, 23.970, 3055.0, 55.2721
15.3088, 23.970, 3237.0, 56.8946
15.3414, 23.970, 3195.0, 56.5243
15.374, 23.970, 3302.0, 57.4630
15.4066, 23.970, 3302.0, 57.4630
15.4392, 23.970, 3237.0, 56.8946
15.4718, 23.970, 3252.0, 57.0263
15.5044, 23.970, 3269.0, 57.1752
15.537, 23.970, 3310.0, 57.5326
15.5696, 23.970, 3349.0, 57.8705
15.6022, 23.970, 3356.0, 57.9310
15.6348, 23.970, 3394.0, 58.2580
15.6674, 23.970, 3386.0, 58.1893
15.7, 23.970, 3430.0, 58.5662
15.7326, 23.970, 3472.0, 58.9237
15.7652, 23.970, 3478.0, 58.9746
15.7978, 23.970, 3548.0, 59.5651
15.8304, 23.970, 3531.0, 59.4222
15.863, 23.970, 3649.0, 60.4070
15.8956, 23.970, 3578.0, 59.8164
15.9282, 23.970, 3760.0, 61.3188
15.9608, 23.970, 3552.0, 59.5987
15.9934, 23.970, 3570.0, 59.7495
16.026, 23.970, 3706.0, 60.8769
16.0586, 23.970, 3780.0, 61.4817
16.0912, 23.970, 3725.0, 61.0328
16.1238, 23.970, 3711.0, 60.9180
16.1564, 23.970, 3736.0, 61.1228
16.189, 23.970, 3754.0, 61.2699
16.2216, 23.970, 3804.0, 61.6766
16.2542, 23.970, 3920.0, 62.6099
16.2868, 23.970, 3878.0, 62.2736
16.3194, 23.970, 3869.0, 62.2013
16.352, 23.970, 3985.0, 63.1269
16.3846, 23.970, 3940.0, 62.7694
16.4172, 23.970, 4085.0, 63.9140
16.4498, 23.970, 3948.0, 62.8331
16.4824, 23.970, 4030.0, 63.4823
16.515, 23.970, 4004.0, 63.2772
16.5476, 23.970, 4139.0, 64.3351
16.5802, 23.970, 4162.0, 64.5136
16.6128, 23.970, 4182.0, 64.6684
16.6454, 23.970, 4222.0, 64.9769
16.678, 23.970, 4142.0, 64.3584
16.7106, 23.970, 4363.0, 66.0530
16.7432, 23.970, 4316.0, 65.6963
16.7758, 23.970, 4277.0, 65.3988
16.8084, 23.970, 4324.0, 65.7571
16.841, 23.970, 4473.0, 66.8805
16.8736, 23.970, 4424.0, 66.5132
16.9062, 23.970, 4511.0, 67.1640
16.9388, 23.970, 4465.0, 66.8207
16.9714, 23.970, 4498.0, 67.0671
17.004, 23.970, 4581.0, 67.6831
17.0366, 23.970, 4595.0, 67.7864
17.0692, 23.970, 4534.0, 67.3350
17.1018, 23.970, 4621.0, 67.9779
17.1344, 23.970, 4728.0, 68.7605
17.167, 23.970, 4699.0, 68.5493
17.1996, 23.970, 4736.0, 68.8186
17.2322, 23.970, 4669.0, 68.3301
17.2648, 23.970, 4842.0, 69.5845
17.2974, 23.970, 4865.0, 69.7496
17.33, 23.970, 4869.0, 69.7782
17.3626, 23.970, 4996.0, 70.6824
17.3952, 23.970, 4952.0, 70.3704
17.4278, 23.970, 4815.0, 69.3902
17.4604, 23.970, 4983.0, 70.5904
17.493, 23.970, 5057.0, 71.1126
17.5256, 23.970, 4990.0, 70.6399
17.5582, 23.970, 5111.0, 71.4913
17.5908, 23.970, 5171.0, 71.9097
17.6234, 23.970, 5083.0, 71.2952
17.656, 23.970, 5143.0, 71.7147
17.6886, 23.970, 5319.0, 72.9315
17.7212, 23.970, 5297.0, 72.7805
17.7538, 23.970, 5295.0, 72.7668
17.7864, 23.970, 5263.0, 72.5465
17.819, 23.970, 5365.0, 73.2462
17.8516, 23.970, 5509.0, 74.2226
17.8842, 23.970, 5372.0, 73.2939
17.9168, 23.970, 5421.0, 73.6274
17.9494, 23.970, 5603.0, 74.8532
17.982, 23.970, 5567.0, 74.6123
18.0146, 23.970, 5605.0, 74.8665
18.0472, 23.970, 5702.0, 75.5116
18.0798, 23.970, 5853.0, 76.5049
18.1124, 23.970, 5843.0, 76.4395
18.145, 23.970, 5893.0, 76.7659
18.1776, 23.970, 6012.0, 77.5371
18.2102, 23.970, 6094.0, 78.0641
18.2428, 23.970, 6301.0, 79.3788
18.2754, 23.970, 6309.0, 79.4292
18.308, 23.970, 6344.0, 79.6492
18.3406, 23.970, 6410.0, 80.0625
18.3732, 23.970, 6698.0, 81.8413
18.4058, 23.970, 6782.0, 82.3529
18.4384, 23.970, 6871.0, 82.8915
18.471, 23.970, 7239.0, 85.0823
18.5036, 23.970, 7387.0, 85.9477
18.5362, 23.970, 7663.0, 87.5386
18.5688, 23.970, 8094.0, 89.9667
18.6013, 23.970, 8197.0, 90.5373
18.6339, 23.970, 8585.0, 92.6553
18.6665, 23.970, 8784.0, 93.7230
18.6991, 23.970, 8999.0, 94.8631
18.7317, 23.970, 9658.0, 98.2751
18.7643, 23.970, 10017.0, 100.0850
18.7969, 23.970, 10080.0, 100.3992
18.8295, 23.970, 10607.0, 102.9903
18.8621, 23.970, 10880.0, 104.3072
18.8947, 23.970, 11061.0, 105.1713
18.9273, 23.970, 11399.0, 106.7661
18.9599, 23.970, 11191.0, 105.7875
18.9925, 23.970, 11178.0, 105.7261
19.0251, 23.970, 11178.0, 105.7261
19.0577, 23.970, 10958.0, 104.6805
19.0903, 23.970, 11115.0, 105.4277
19.1229, 23.970, 10829.0, 104.0625
19.1555, 23.970, 10351.0, 101.7399
19.1881, 23.970, 10112.0, 100.5584
19.2207, 23.970, 9688.0, 98.4276
19.2533, 23.970, 9335.0, 96.6178
19.2859, 23.970, 8994.0, 94.8367
19.3185, 23.970, 8842.0, 94.0319
19.3511, 23.970, 8245.0, 90.8020
19.3837, 23.970, 8238.0, 90.7634
19.4163, 23.970, 8124.0, 90.1332
19.4489, 23.970, 7759.0, 88.0852
19.4815, 23.970, 7472.0, 86.4407
19.5141, 23.970, 7457.0, 86.3539
19.5467, 23.970, 7257.0, 85.1880
19.5793, 23.970, 7139.0, 84.4926
19.6119, 23.970, 6970.0, 83.4865
19.6445, 23.970, 6705.0, 81.8841
19.6771, 23.970, 6771.0, 82.2861
19.7097, 23.970, 6590.0, 81.1788
19.7423, 23.970, 6597.0, 81.2219
19.7749, 23.970, 6350.0, 79.6869
19.8075, 23.970, 6470.0, 80.4363
19.8401, 23.970, 6496.0, 80.5978
19.8727, 23.970, 6343.0, 79.6430
19.9053, 23.970, 6309.0, 79.4292
19.9379, 23.970, 6033.0, 77.6724
19.9705, 23.970, 6052.0, 77.7946
20.0031, 23.970, 6197.0, 78.7210
20.0357, 23.970, 6197.0, 78.7210
20.0683, 23.970, 6165.0, 78.5175
20.1009, 23.970, 6188.0, 78.6638
20.1335, 23.970, 6238.0, 78.9810
20.1661, 23.970, 6169.0, 78.5430
20.1987, 23.970, 6172.0, 78.5621
20.2313, 23.970, 6055.0, 77.8139
20.2639, 23.970, 6104.0, 78.1281
20.2965, 23.970, 6159.0, 78.4793
20.3291, 23.970, 6130.0, 78.2943
20.3617, 23.970, 6171.0, 78.5557
20.3943, 23.970, 6257.0, 79.1012
20.4269, 23.970, 6274.0, 79.2086
20.4595, 23.970, 6229.0, 78.9240
20.4921, 23.970, 6429.0, 80.1810
20.5247, 23.970, 6571.0, 81.0617
20.5573, 23.970, 6443.0, 80.2683
20.5899, 23.970, 6616.0, 81.3388
20.6225, 23.970, 6671.0, 81.6762
20.6551, 23.970, 6735.0, 82.0670
20.6877, 23.970, 6899.0, 83.0602
20.7203, 23.970, 6835.0, 82.6741
20.7529, 23.970, 6878.0, 82.9337
20.7855, 23.970, 7115.0, 84.3505
20.8181, 23.970, 7112.0, 84.3327
20.8507, 23.970, 7031.0, 83.8511
20.8833, 23.970, 7062.0, 84.0357
20.9159, 23.970, 7247.0, 85.1293
20.9485, 23.970, 7145.0, 84.5281
20.9811, 23.970, 7065.0, 84.0536
21.0137, 23.970, 7110.0, 84.3208
21.0463, 23.970, 6943.0, 83.3247
21.0789, 23.970, 7009.0, 83.7198
21.1115, 23.970, 6795.0, 82.4318
21.1441, 23.970, 6913.0, 83.1445
21.1767, 23.970, 6564.0, 81.0185
21.2093, 23.970, 6553.0, 80.9506
21.2419, 23.970, 6542.0, 80.8826
21.2745, 23.970, 6324.0, 79.5236
21.3071, 23.970, 6248.0, 79.0443
21.3397, 23.970, 6392.0, 79.9500
21.3723, 23.970, 6074.0, 77.9359
21.4049, 23.970, 6121.0, 78.2368
21.4375, 23.970, 6178.0, 78.6003
21.4701, 23.970, 5898.0, 76.7984
21.5027, 23.970, 5780.0, 76.0263
21.5353, 23.970, 5813.0, 76.2430
21.5679, 23.970, 5752.0, 75.8419
21.6005, 23.970, 5699.0, 75.4917
21.6331, 23.970, 5719.0, 75.6241
21.6657, 23.970, 5518.0, 74.2832
21.6983, 23.970, 5465.0, 73.9256
21.7309, 23.970, 5498.0, 74.1485
21.7635, 23.970, 5446.0, 73.7970
21.7961, 23.970, 5513.0, 74.2496
21.8287, 23.970, 5392.0, 73.4302
21.8613, 23.970, 5451.0, 73.8309
21.8939, 23.970, 5361.0, 73.2189
21.9265, 23.970, 5447.0, 73.8038
21.9591, 23.970, 5405.0, 73.5187
21.9917, 23.970, 5380.0, 73.3485
22.0243, 23.970, 5463.0, 73.9121
22.0569, 23.970, 5590.0, 74.7663
22.0895, 23.970, 5431.0, 73.6953
22.1221, 23.970, 5626.0, 75.0067
22.1547, 23.970, 5610.0, 74.8999
22.1873, 23.970, 5674.0, 75.3260
22.2199, 23.970, 5893.0, 76.7659
22.2525, 23.970, 5941.0, 77.0779
22.2851, 23.970, 6011.0, 77.5306
22.3177, 23.970, 6110.0, 78.1665
22.3503, 23.970, 6250.0, 79.0569
22.3829, 23.970, 6347.0, 79.6681
22.4155, 23.970, 6541.0, 80.8764
22.4481, 23.970, 6614.0, 81.3265
22.4807, 23.970, 6759.0, 82.2131
22.5133, 23.970, 6944.0, 83.3307
22.5459, 23.970, 6956.0, 83.4026
22.5785, 23.970, 7025.0, 83.8153
22.6111, 23.970, 7219.0, 84.9647
22.6437, 23.970, 7283.0, 85.3405
22.6763, 23.970, 7243.0, 85.1058
22.7089, 23.970, 7290.0, 85.3815
22.7415, 23.970, 7403.0, 86.0407
22.7741, 23.970, 7249.0, 85.1411
22.8067, 23.970, 7311.0, 85.5044
22.8393, 23.970, 7263.0, 85.2232
22.8719, 23.970, 7142.0, 84.5104
22.9045, 23.970, 7199.0, 84.8469
22.9371, 23.970, 7108.0, 84.3090
22.9697, 23.970, 6924.0, 83.2106
23.0023, 23.970, 6984.0, 83.5703
23.0349, 23.970, 6752.0, 82.1706
23.0675, 23.970, 6628.0, 81.4125
23.1001, 23.970, 6607.0, 81.2835
23.1327, 23.970, 6346.0, 79.6618
23.1653, 23.970, 6059.0, 77.8396
23.1979, 23.970, 6077.0, 77.9551
23.2305, 23.970, 5929.0, 77.0000
23.2631, 23.970, 5956.0, 77.1751
23.2957, 23.970, 5732.0, 75.7100
23.3283, 23.970, 5612.0, 74.9133
23.3609, 23.970, 5610.0, 74.8999
23.3934, 23.970, 5260.0, 72.5259
23.426, 23.970, 5317.0, 72.9178
23.4586, 23.970, 5222.0, 72.2634
23.4912, 23.970, 5057.0, 71.1126
23.5238, 23.970, 4929.0, 70.2068
23.5564, 23.970, 4897.0, 69.9786
23.589, 23.970, 4854.0, 69.6707
23.6216, 23.970, 4697.0, 68.5347
23.6542, 23.970, 4534.0, 67.3350
23.6868, 23.970, 4539.0, 67.3721
23.7194, 23.970, 4532.0, 67.3201
23.752, 23.970, 4419.0, 66.4756
23.7846, 23.970, 4341.0, 65.8863
23.8172, 23.970, 4332.0, 65.8179
23.8498, 23.970, 4187.0, 64.7070
23.8824, 23.970, 4150.0, 64.4205
23.915, 23.970, 4082.0, 63.8905
23.9476, 23.970, 3924.0, 62.6418
23.9802, 23.970, 3962.0, 62.9444
24.0128, 23.970, 3770.0, 61.4003
24.0454, 23.970, 3857.0, 62.1048
24.078, 23.970, 3744.0, 61.1882
24.1106, 23.970, 3607.0, 60.0583
24.1432, 23.970, 3688.0, 60.7289
24.1758, 23.970, 3548.0, 59.5651
24.2084, 23.970, 3502.0, 59.1777
24.241, 23.970, 3621.0, 60.1747
24.2736, 23.970, 3401.0, 58.3181
24.3062, 23.970, 3432.0, 58.5833
24.3388, 23.970, 3478.0, 58.9746
24.3714, 23.970, 3311.0, 57.5413
24.404, 23.970, 3236.0, 56.8859
24.4366, 23.970, 3307.0, 57.5065
24.4692, 23.970, 3249.0, 57.0000
24.5018, 23.970, 3194.0, 56.5155
24.5344, 23.970, 3221.0, 56.7539
24.567, 23.970, 3191.0, 56.4889
24.5996, 23.970, 3223.0, 56.7715
24.6322, 23.970, 3101.0, 55.6866
24.6648, 23.970, 3093.0, 55.6147
24.6974, 23.970, 3122.0, 55.8749
24.73, 23.970, 3151.0, 56.1338
24.7626, 23.970, 3064.0, 55.3534
24.7952, 23.970, 3180.0, 56.3915
24.8278, 23.970, 3092.0, 55.6058
24.8604, 23.970, 2855.0, 53.4322
24.893, 23.970, 3098.0, 55.6597
24.9256, 23.970, 2894.0, 53.7959
24.9582, 23.970, 2920.0, 54.0370
24.9908, 23.970, 3017.0, 54.9272
25.0234, 23.970, 2911.0, 53.9537
25.056, 23.970, 2986.0, 54.6443
25.0886, 23.970, 2982.0, 54.6077
25.1212, 23.970, 2946.0, 54.2771
25.1538, 23.970, 2872.0, 53.5910
25.1864, 23.970, 2841.0, 53.3010
25.219, 23.970, 2768.0, 52.6118
25.2516, 23.970, 2908.0, 53.9259
25.2842, 23.970, 2880.0, 53.6656
25.3168, 23.970, 2824.0, 53.1413
25.3494, 23.970, 2909.0, 53.9351
25.382, 23.970, 2771.0, 52.6403
25.4146, 23.970, 2763.0, 52.5642
25.4472, 23.970, 2769.0, 52.6213
25.4798, 23.970, 2779.0, 52.7162
25.5124, 23.970, 2880.0, 53.6656
25.545, 23.970, 2744.0, 52.3832
25.5776, 23.970, 2715.0, 52.1057
25.6102, 23.970, 2634.0, 51.3225
25.6428, 23.970, 2746.0, 52.4023
25.6754, 23.970, 2779.0, 52.7162
25.708, 23.970, 2707.0, 52.0288
25.7406, 23.970, 2652.0, 51.4976
25.7732, 23.970, 2698.0, 51.9423
25.8058, 23.970, 2826.0, 53.1601
25.8384, 23.970, 2655.0, 51.5267
25.871, 23.970, 2670.0, 51.6720
25.9036, 23.970, 2772.0, 52.6498
25.9362, 23.970, 2581.0, 50.8035
25.9688, 23.970, 2668.0, 51.6527
26.0014, 23.970, 2617.0, 51.1566
26.034, 23.970, 2638.0, 51.3615
26.0666, 23.970, 2574.0, 50.7346
26.0992, 23.970, 2647.0, 51.4490
26.1318, 23.970, 2470.0, 49.6991
26.1644, 23.970, 2547.0, 50.4678
26.197, 23.970, 2590.0, 50.8920
26.2296, 23.970, 2627.0, 51.2543
26.2622, 23.970, 2580.0, 50.7937
26.2948, 23.970, 2656.0, 51.5364
26.3274, 23.970, 2522.0, 50.2195
26.36, 23.970, 2560.0, 50.5964
26.3926, 23.970, 2427.0, 49.2646
26.4252, 23.970, 2417.0, 49.1630
26.4578, 23.970, 2613.0, 51.1175
26.4904, 23.970, 2617.0, 51.1566
26.523, 23.970, 2501.0, 50.0100
26.5556, 23.970, 2565.0, 50.6458
26.5882, 23.970, 2499.0, 49.9900
26.6208, 23.970, 2514.0, 50.1398
26.6534, 23.970, 2445.0, 49.4469
26.686, 23.970, 2503.0, 50.0300
26.7186, 23.970, 2486.0, 49.8598
26.7512, 23.970, 2397.0, 48.9592
26.7838, 23.970, 2368.0, 48.6621
26.8164, 23.970, 2398.0, 48.9694
26.849, 23.970, 2384.0, 48.8262
26.8816, 23.970, 2419.0, 49.1833
26.9142, 23.970, 2418.0, 49.1732
26.9468, 23.970, 2374.0, 48.7237
26.9794, 23.970, 2489.0, 49.8899
27.012, 23.970, 2405.0, 49.0408
27.0446, 23.970, 2359.0, 48.5695
27.0772, 23.970, 2366.0, 48.6415
27.1098, 23.970, 2432.0, 49.3153
27.1424, 23.970, 2359.0, 48.5695
27.175, 23.970, 2332.0, 48.2908
27.2076, 23.970, 2312.0, 48.0833
27.2402, 23.970, 2329.0, 48.2597
27.2728, 23.970, 2427.0, 49.2646
27.3054, 23.970, 2404.0, 49.0306
27.338, 23.970, 2371.0, 48.6929
27.3706, 23.970, 2331.0, 48.2804
27.4032, 23.970, 2317.0, 48.1352
27.4358, 23.970, 2414.0, 49.1325
27.4684, 23.970, 2178.0, 46.6690
27.501, 23.970, 2304.0, 48.0000
27.5336, 23.970, 2271.0, 47.6550
27.5662, 23.970, 2320.0, 48.1664
27.5988, 23.970, 2264.0, 47.5815
27.6314, 23.970, 2197.0, 46.8722
27.664, 23.970, 2338.0, 48.3529
27.6966, 23.970, 2308.0, 48.0416
27.7292, 23.970, 2322.0, 48.1871
27.7618, 23.970, 2347.0, 48.4458
27.7944, 23.970, 2163.0, 46.5081
27.827, 23.970, 2333.0, 48.3011
27.8596, 23.970, 2384.0, 48.8262
27.8922, 23.970, 2327.0, 48.2390
27.9248, 23.970, 2331.0, 48.2804
27.9574, 23.970, 2262.0, 47.5605
27.99, 23.970, 2470.0, 49.6991
28.0226, 23.970, 2440.0, 49.3964
28.0552, 23.970, 2452.0, 49.5177
28.0878, 23.970, 2421.0, 49.2037
28.1204, 23.970, 2505.0, 50.0500
28.153, 23.970, 2493.0, 49.9300
28.1855, 23.970, 2563.0, 50.6261
28.2181, 23.970, 2524.0, 50.2394
28.2507, 23.970, 2627.0, 51.2543
28.2833, 23.970, 2646.0, 51.4393
28.3159, 23.970, 2655.0, 51.5267
28.3485, 23.970, 2845.0, 53.3385
28.3811, 23.970, 2677.0, 51.7397
28.4137, 23.970, 2779.0, 52.7162
28.4463, 23.970, 2928.0, 54.1110
28.4789, 23.970, 2848.0, 53.3667
28.5115, 23.970, 3013.0, 54.8908
28.5441, 23.970, 3021.0, 54.9636
28.5767, 23.970, 3130.0, 55.9464
28.6093, 23.970, 3128.0, 55.9285
28.6419, 23.970, 3208.0, 56.6392
28.6745, 23.970, 3222.0, 56.7627
28.7071, 23.970, 3407.0, 58.3695
28.7397, 23.970, 3346.0, 57.8446
28.7723, 23.970, 3402.0, 58.3267
28.8049, 23.970, 3360.0, 57.9655
28.8375, 23.970, 3567.0, 59.7244
28.8701, 23.970, 3444.0, 58.6856
28.9027, 23.970, 3415.0, 58.4380
28.9353, 23.970, 3434.0, 58.6003
28.9679, 23.970, 3302.0, 57.4630
29.0005, 23.970, 3375.0, 58.0948
29.0331, 23.970, 3321.0, 57.6281
29.0657, 23.970, 3347.0, 57.8533
29.0983, 23.970, 3343.0, 57.8187
29.1309, 23.970, 3193.0, 56.5066
29.1635, 23.970, 3349.0, 57.8705
29.1961, 23.970, 3310.0, 57.5326
29.2287, 23.970, 3188.0, 56.4624
29.2613, 23.970, 3295.0, 57.4021
29.2939, 23.970, 3324.0, 57.6541
29.3265, 23.970, 3445.0, 58.6941
29.3591, 23.970, 3454.0, 58.7707
29.3917, 23.970, 3490.0, 59.0762
29.4243, 23.970, 3196.0, 56.5332
29.4569, 23.970, 3110.0, 55.7674
29.4895, 23.970, 2754.0, 52.4786
29.5221, 23.970, 2715.0, 52.1057
29.5547, 23.970, 2681.0, 51.7784
29.5873, 23.970, 2604.0, 51.0294
29.6199, 23.970, 2618.0, 51.1664
29.6525, 23.970, 2491.0, 49.9099
29.6851, 23.970, 2462.0, 49.6185
29.7177, 23.970, 2396.0, 48.9490
29.7503, 23.970, 2452.0, 49.5177
29.7829, 23.970, 2400.0, 48.9898
29.8155, 23.970, 2414.0, 49.1325
29.8481, 23.970, 2291.0, 47.8644
29.8807, 23.970, 2266.0, 47.6025
29.9133, 23.970, 2233.0, 47.2546
29.9459, 23.970, 2178.0, 46.6690
29.9785, 23.970, 2254.0, 47.4763
30.0111, 23.970, 2215.0, 47.0638
30.0437, 23.970, 2224.0, 47.1593
30.0763, 23.970, 2218.0, 47.0956
30.1089, 23.970, 2167.0, 46.5510
30.1415, 23.970, 2155.0, 46.4220
30.1741, 23.970, 2080.0, 45.6070
30.2067, 23.970, 2061.0, 45.3982
30.2393, 23.970, 2080.0, 45.6070
30.2719, 23.970, 2092.0, 45.7384
30.3045, 23.970, 2031.0, 45.0666
30.3371, 23.970, 1997.0, 44.6878
30.3697, 23.970, 2110.0, 45.9347
30.4023, 23.970, 1998.0, 44.6990
30.4349, 23.970, 2079.0, 45.5961
30.4675, 23.970, 1960.0, 44.2719
30.5001, 23.970, 1988.0, 44.5870
30.5327, 23.970, 1950.0, 44.1588
30.5653, 23.970, 2016.0, 44.8999
30.5979, 23.970, 1973.0, 44.4185
30.6305, 23.970, 1936.0, 44.0000
30.6631, 23.970, 1932.0, 43.9545
30.6957, 23.970, 1887.0, 43.4396
30.7283, 23.970, 1892.0, 43.4971
30.7609, 23.970, 1890.0, 43.4741
30.7935, 23.970, 1944.0, 44.0908
30.8261, 23.970, 1876.0, 43.3128
30.8587, 23.970, 1802.0, 42.4500
30.8913, 23.970, 1840.0, 42.8952
30.9239, 23.970, 1833.0, 42.8135
30.9565, 23.970, 1834.0, 42.8252
30.9891, 23.970, 1819.0, 42.6497
31.0217, 23.970, 1755.0, 41.8927
31.0543, 23.970, 1710.0, 41.3521
31.0869, 23.970, 1753.0, 41.8688
31.1195, 23.970, 1805.0, 42.4853
31.1521, 23.970, 1714.0, 41.4005
31.1847, 23.970, 1789.0, 42.2966
31.2173, 23.970, 1774.0, 42.1189
31.2499, 23.970, 1642.0, 40.5216
31.2825, 23.970, 1730.0, 41.5933
31.3151, 23.970, 1616.0, 40.1995
31.3477, 23.970, 1777.0, 42.1545
31.3803, 23.970, 1702.0, 41.2553
31.4129, 23.970, 1628.0, 40.3485
31.4455, 23.970, 1744.0, 41.7612
31.4781, 23.970, 1695.0, 41.1704
31.5107, 23.970, 1675.0, 40.9268
31.5433, 23.970, 1698.0, 41.2068
31.5759, 23.970, 1674.0, 40.9145
31.6085, 23.970, 1647.0, 40.5832
31.6411, 23.970, 1580.0, 39.7492
31.6737, 23.970, 1624.0, 40.2989
31.7063, 23.970, 1567.0, 39.5854
31.7389, 23.970, 1576.0, 39.6989
31.7715, 23.970, 1682.0, 41.0122
31.8041, 23.970, 1580.0, 39.7492
31.8367, 23.970, 1591.0, 39.8873
31.8693, 23.970, 1627.0, 40.3361
31.9019, 23.970, 1565.0, 39.5601
31.9345, 23.970, 1574.0, 39.6737
31.9671, 23.970, 1560.0, 39.4968
31.9997, 23.970, 1624.0, 40.2989
32.0323, 23.970, 1623.0, 40.2865
32.0649, 23.970, 1642.0, 40.5216
32.0975, 23.970, 1590.0, 39.8748
32.1301, 23.970, 1592.0, 39.8999
32.1627, 23.970, 1509.0, 38.8458
32.1953, 23.970, 1704.0, 41.2795
32.2279, 23.970, 1595.0, 39.9375
32.2605, 23.970, 1513.0, 38.8973
32.2931, 23.970, 1553.0, 39.4081
32.3257, 23.970, 1631.0, 40.3856
32.3583, 23.970, 1583.0, 39.7869
32.3909, 23.970, 1614.0, 40.1746
32.4235, 23.970, 1661.0, 40.7554
32.4561, 23.970, 1699.0, 41.2189
32.4887, 23.970, 1624.0, 40.2989
32.5213, 23.970, 1548.0, 39.3446
32.5539, 23.970, 1596.0, 39.9500
32.5865, 23.970, 1601.0, 40.0125
32.6191, 23.970, 1616.0, 40.1995
32.6517, 23.970, 1552.0, 39.3954
32.6843, 23.970, 1599.0, 39.9875
32.7169, 23.970, 1683.0, 41.0244
32.7495, 23.970, 1645.0, 40.5586
32.7821, 23.970, 1646.0, 40.5709
32.8147, 23.970, 1670.0, 40.8656
32.8473, 23.970, 1606.0, 40.0749
32.8799, 23.970, 1618.0, 40.2244
32.9125, 23.970, 1650.0, 40.6202
32.9451, 23.970, 1641.0, 40.5093
32.9776, 23.970, 1673.0, 40.9023
33.0102, 23.970, 1646.0, 40.5709
33.0428, 23.970, 1590.0, 39.8748
33.0754, 23.970, 1659.0, 40.7308
33.108, 23.970, 1581.0, 39.7618
33.1406, 23.970, 1658.0, 40.7185
33.1732, 23.970, 1587.0, 39.8372
33.2058, 23.970, 1548.0, 39.3446
33.2384, 23.970, 1599.0, 39.9875
33.271, 23.970, 1580.0, 39.7492
33.3036, 23.970, 1608.0, 40.0999
33.3362, 23.970, 1524.0, 39.0384
33.3688, 23.970, 1587.0, 39.8372
33.4014, 23.970, 1578.0, 39.7240
33.434, 23.970, 1555.0, 39.4335
33.4666, 23.970, 1568.0, 39.5980
33.4992, 23.970, 1471.0, 38.3536
33.5318, 23.970, 1607.0, 40.0874
33.5644, 23.970, 1523.0, 39.0256
33.597, 23.970, 1534.0, 39.1663
33.6296, 23.970, 1515.0, 38.9230
33.6622, 23.970, 1530.0, 39.1152
33.6948, 23.970, 1610.0, 40.1248
33.7274, 23.970, 1541.0, 39.2556
33.76, 23.970, 1533.0, 39.1535
33.7926, 23.970, 1502.0, 38.7556
33.8252, 23.970, 1487.0, 38.5616
33.8578, 23.970, 1470.0, 38.3406
33.8904, 23.970, 1453.0, 38.1182
33.923, 23.970, 1469.0, 38.3275
33.9556, 23.970, 1513.0, 38.8973
33.9882, 23.970, 1411.0, 37.5633
34.0208, 23.970, 1454.0, 38.1314
34.0534, 23.970, 1502.0, 38.7556
34.086, 23.970, 1423.0, 37.7227
34.1186, 23.970, 1399.0, 37.4032
34.1512, 23.970, 1409.0, 37.5366
34.1838, 23.970, 1424.0, 37.7359
34.2164, 23.970, 1441.0, 37.9605
34.249, 23.970, 1411.0, 37.5633
34.2816, 23.970, 1373.0, 37.0540
34.3142, 23.970, 1337.0, 36.5650
34.3468, 23.970, 1338.0, 36.5787
34.3794, 23.970, 1386.0, 37.2290
34.412, 23.970, 1352.0, 36.7696
34.4446, 23.970, 1293.0, 35.9583
34.4772, 23.970, 1329.0, 36.4555
34.5098, 23.970, 1258.0, 35.4683
34.5424, 23.970, 1306.0, 36.1386
34.575, 23.970, 1336.0, 36.5513
34.6076, 23.970, 1413.0, 37.5899
34.6402, 23.970, 1329.0, 36.4555
34.6728, 23.970, 1367.0, 36.9730
34.7054, 23.970, 1307.0, 36.1525
34.738, 23.970, 1285.0, 35.8469
34.7706, 23.970, 1272.0, 35.6651
34.8032, 23.970, 1281.0, 35.7911
34.8358, 23.970, 1233.0, 35.1141
34.8684, 23.970, 1293.0, 35.9583
34.901, 23.970, 1263.0, 35.5387
34.9336, 23.970, 1195.0, 34.5688
34.9662, 23.970, 1290.0, 35.9166
34.9988, 23.970, 1309.0, 36.1801
35.0314, 23.970, 1186.0, 34.4384
35.064, 23.970, 1270.0, 35.6371
35.0966, 23.970, 1227.0, 35.0286
35.1292, 23.970, 1203.0, 34.6843
35.1618, 23.970, 1209.0, 34.7707
35.1944, 23.970, 1244.0, 35.2704
35.227, 23.970, 1306.0, 36.1386
35.2596, 23.970, 1283.0, 35.8190
35.2922, 23.970, 1220.0, 34.9285
35.3248, 23.970, 1279.0, 35.7631
35.3574, 23.970, 1274.0, 35.6931
35.39, 23.970, 1189.0, 34.4819
35.4226, 23.970, 1222.0, 34.9571
35.4552, 23.970, 1194.0, 34.5543
35.4878, 23.970, 1285.0, 35.8469
35.5204, 23.970, 1226.0, 35.0143
35.553, 23.970, 1280.0, 35.7771
35.5856, 23.970, 1243.0, 35.2562
35.6182, 23.970, 1179.0, 34.3366
35.6508, 23.970, 1190.0, 34.4964
35.6834, 23.970, 1196.0, 34.5832
35.716, 23.970, 1195.0, 34.5688
35.7486, 23.970, 1221.0, 34.9428
35.7812, 23.970, 1252.0, 35.3836
35.8138, 23.970, 1194.0, 34.5543
35.8464, 23.970, 1244.0, 35.2704
35.879, 23.970, 1223.0, 34.9714
35.9116, 23.970, 1281.0, 35.7911
35.9442, 23.970, 1242.0, 35.2420
35.9768, 23.970, 1267.0, 35.5949
36.0094, 23.970, 1223.0, 34.9714
36.042, 23.970, 1193.0, 34.5398
36.0746, 23.970, 1227.0, 35.0286
36.1072, 23.970, 1189.0, 34.4819
36.1398, 23.970, 1143.0, 33.8083
36.1724, 23.970, 1172.0, 34.2345
36.205, 23.970, 1160.0, 34.0588
36.2376, 23.970, 1292.0, 35.9444
36.2702, 23.970, 1170.0, 34.2053
36.3028, 23.970, 1223.0, 34.9714
36.3354, 23.970, 1099.0, 33.1512
36.368, 23.970, 1185.0, 34.4238
36.4006, 23.970, 1148.0, 33.8821
36.4332, 23.970, 1156.0, 34.0000
36.4658, 23.970, 1144.0, 33.8231
36.4984, 23.970, 1127.0, 33.5708
36.531, 23.970, 1151.0, 33.9264
36.5636, 23.970, 1184.0, 34.4093
36.5962, 23.970, 1110.0, 33.3167
36.6288, 23.970, 1217.0, 34.8855
36.6614, 23.970, 1182.0, 34.3802
36.694, 23.970, 1110.0, 33.3167
36.7266, 23.970, 1130.0, 33.6155
36.7592, 23.970, 1118.0, 33.4365
36.7918, 23.970, 1191.0, 34.5109
36.8244, 23.970, 1150.0, 33.9116
36.857, 23.970, 1179.0, 34.3366
36.8896, 23.970, 1104.0, 33.2265
36.9222, 23.970, 1167.0, 34.1614
36.9548, 23.970, 1194.0, 34.5543
36.9874, 23.970, 1215.0, 34.8569
37.02, 23.970, 1156.0, 34.0000
37.0526, 23.970, 1107.0, 33.2716
37.0852, 23.970, 1189.0, 34.4819
37.1178, 23.970, 1154.0, 33.9706
37.1504, 23.970, 1204.0, 34.6987
37.183, 23.970, 1206.0, 34.7275
37.2156, 23.970, 1144.0, 33.8231
37.2482, 23.970, 1178.0, 34.3220
37.2808, 23.970, 1159.0, 34.0441
37.3134, 23.970, 1157.0, 34.0147
37.346, 23.970, 1146.0, 33.8526
37.3786, 23.970, 1164.0, 34.1174
37.4112, 23.970, 1179.0, 34.3366
37.4438, 23.970, 1170.0, 34.2053
37.4764, 23.970, 1177.0, 34.3074
37.509, 23.970, 1133.0, 33.6601
37.5416, 23.970, 1197.0, 34.5977
37.5742, 23.970, 1212.0, 34.8138
37.6068, 23.970, 1209.0, 34.7707
37.6394, 23.970, 1261.0, 35.5106
37.672, 23.970, 1183.0, 34.3948
37.7046, 23.970, 1218.0, 34.8999
37.7372, 23.970, 1226.0, 35.0143
37.7697, 23.970, 1245.0, 35.2846
37.8023, 23.970, 1253.0, 35.3977
37.8349, 23.970, 1284.0, 35.8329
37.8675, 23.970, 1229.0, 35.0571
37.9001, 23.970, 1245.0, 35.2846
37.9327, 23.970, 1216.0, 34.8712
37.9653, 23.970, 1317.0, 36.2905
37.9979, 23.970, 1236.0, 35.1568
38.0305, 23.970, 1296.0, 36.0000
38.0631, 23.970, 1294.0, 35.9722
38.0957, 23.970, 1254.0, 35.4119
38.1283, 23.970, 1241.0, 35.2278
38.1609, 23.970, 1281.0, 35.7911
38.1935, 23.970, 1272.0, 35.6651
38.2261, 23.970, 1330.0, 36.4692
38.2587, 23.970, 1408.0, 37.5233
38.2913, 23.970, 1315.0, 36.2629
38.3239, 23.970, 1354.0, 36.7967
38.3565, 23.970, 1325.0, 36.4005
38.3891, 23.970, 1374.0, 37.0675
38.4217, 23.970, 1273.0, 35.6791
38.4543, 23.970, 1422.0, 37.7094
38.4869, 23.970, 1325.0, 36.4005
38.5195, 23.970, 1413.0, 37.5899
38.5521, 23.970, 1341.0, 36.6197
38.5847, 23.970, 1410.0, 37.5500
38.6173, 23.970, 1405.0, 37.4833
38.6499, 23.970, 1404.0, 37.4700
38.6825, 23.970, 1444.0, 38.0000
38.7151, 23.970, 1407.0, 37.5100
38.7477, 23.970, 1387.0, 37.2424
38.7803, 23.970, 1366.0, 36.9594
38.8129, 23.970, 1433.0, 37.8550
38.8455, 23.970, 1487.0, 38.5616
38.8781, 23.970, 1438.0, 37.9210
38.9107, 23.970, 1478.0, 38.4448
38.9433, 23.970, 1392.0, 37.3095
38.9759, 23.970, 1420.0, 37.6829
39.0085, 23.970, 1453.0, 38.1182
39.0411, 23.970, 1361.0, 36.8917
39.0737, 23.970, 1394.0, 37.3363
39.1063, 23.970, 1460.0, 38.2099
39.1389, 23.970, 1383.0, 37.1887
39.1715, 23.970, 1480.0, 38.4708
39.2041, 23.970, 1510.0, 38.8587
39.2367, 23.970, 1456.0, 38.1576
39.2693, 23.970, 1496.0, 38.6782
39.3019, 23.970, 1502.0, 38.7556
39.3345, 23.970, 1581.0, 39.7618
39.3671, 23.970, 1600.0, 40.0000
39.3997, 23.970, 1486.0, 38.5487
39.4323, 23.970, 1532.0, 39.1408
39.4649, 23.970, 1459.0, 38.1969
39.4975, 23.970, 1427.0, 37.7757
39.5301, 23.970, 1444.0, 38.0000
39.5627, 23.970, 1365.0, 36.9459
39.5953, 23.970, 1332.0, 36.4966
39.6279, 23.970, 1351.0, 36.7560
39.6605, 23.970, 1352.0, 36.7696
39.6931, 23.970, 1346.0, 36.6879
39.7257, 23.970, 1361.0, 36.8917
39.7583, 23.970, 1301.0, 36.0694
39.7909, 23.970, 1347.0, 36.7015
39.8235, 23.970, 1297.0, 36.0139
39.8561, 23.970, 1310.0, 36.1939
39.8887, 23.970, 1312.0, 36.2215
39.9213, 23.970, 1284.0, 35.8329
39.9539, 23.970, 1283.0, 35.8190
39.9865, 23.970, 1298.0, 36.0278
40.0191, 23.970, 1294.0, 35.9722
40.0517, 23.970, 1258.0, 35.4683
40.0843, 23.970, 1271.0, 35.6511
40.1169, 23.970, 1308.0, 36.1663
40.1495, 23.970, 1281.0, 35.7911
40.1821, 23.970, 1161.0, 34.0735
40.2147, 23.970, 1232.0, 35.0999
40.2473, 23.970, 1274.0, 35.6931
40.2799, 23.970, 1233.0, 35.1141
40.3125, 23.970, 1192.0, 34.5254
40.3451, 23.970, 1200.0, 34.6410
40.3777, 23.970, 1242.0, 35.2420
40.4103, 23.970, 1179.0, 34.3366
40.4429, 23.970, 1180.0, 34.3511
40.4755, 23.970, 1249.0, 35.3412
40.5081, 23.970, 1239.0, 35.1994
40.5407, 23.970, 1298.0, 36.0278
40.5733, 23.970, 1257.0, 35.4542
40.6059, 23.970, 1205.0, 34.7131
40.6385, 23.970, 1228.0, 35.0428
40.6711, 23.970, 1246.0, 35.2987
40.7037, 23.970, 1278.0, 35.7491
40.7363, 23.970, 1239.0, 35.1994
40.7689, 23.970, 1240.0, 35.2136
40.8015, 23.970, 1226.0, 35.0143
40.8341, 23.970, 1308.0, 36.1663
40.8667, 23.970, 1202.0, 34.6699
40.8993, 23.970, 1259.0, 35.4824
40.9319, 23.970, 1264.0, 35.5528
40.9645, 23.970, 1232.0, 35.0999
40.9971, 23.970, 1252.0, 35.3836
41.0297, 23.970, 1308.0, 36.1663
41.0623, 23.970, 1270.0, 35.6371
41.0949, 23.970, 1269.0, 35.6230
41.1275, 23.970, 1249.0, 35.3412
41.1601, 23.970, 1269.0, 35.6230
41.1927, 23.970, 1297.0, 36.0139
41.2253, 23.970, 1217.0, 34.8855
41.2579, 23.970, 1301.0, 36.0694
41.2905, 23.970, 1247.0, 35.3129
41.3231, 23.970, 1262.0, 35.5246
41.3557, 23.970, 1258.0, 35.4683
41.3883, 23.970, 1241.0, 35.2278
41.4209, 23.970, 1269.0, 35.6230
41.4535, 23.970, 1263.0, 35.5387
41.4861, 23.970, 1283.0, 35.8190
41.5187, 23.970, 1265.0, 35.5668
41.5513, 23.970, 1253.0, 35.3977
41.5839, 23.970, 1230.0, 35.0714
41.6165, 23.970, 1261.0, 35.5106
41.6491, 23.970, 1201.0, 34.6554
41.6817, 23.970, 1263.0, 35.5387
41.7143, 23.970, 1251.0, 35.3695
41.7469, 23.970, 1226.0, 35.0143
41.7795, 23.970, 1197.0, 34.5977
41.8121, 23.970, 1171.0, 34.2199
41.8447, 23.970, 1226.0, 35.0143
41.8773, 23.970, 1237.0, 35.1710
41.9099, 23.970, 1179.0, 34.3366
41.9425, 23.970, 1218.0, 34.8999
41.9751, 23.970, 1150.0, 33.9116
42.0077, 23.970, 1203.0, 34.6843
42.0403, 23.970, 1195.0, 34.5688
42.0729, 23.970, 1141.0, 33.7787
42.1055, 23.970, 1209.0, 34.7707
42.1381, 23.970, 1194.0, 34.5543
42.1707, 23.970, 1116.0, 33.4066
42.2033, 23.970, 1202.0, 34.6699
42.2359, 23.970, 1147.0, 33.8674
42.2685, 23.970, 1150.0, 33.9116
42.3011, 23.970, 1143.0, 33.8083
42.3337, 23.970, 1176.0, 34.2929
42.3663, 23.970, 1152.0, 33.9411
42.3989, 23.970, 1112.0, 33.3467
42.4315, 23.970, 1109.0, 33.3017
42.4641, 23.970, 1150.0, 33.9116
42.4967, 23.970, 1188.0, 34.4674
42.5293, 23.970, 1165.0, 34.1321
42.5618, 23.970, 1166.0, 34.1467
42.5944, 23.970, 1150.0, 33.9116
42.627, 23.970, 1159.0, 34.0441
42.6596, 23.970, 1123.0, 33.5112
42.6922, 23.970, 1167.0, 34.1614
42.7248, 23.970, 1130.0, 33.6155
42.7574, 23.970, 1098.0, 33.1361
42.79, 23.970, 1165.0, 34.1321
42.8226, 23.970, 1163.0, 34.1028
42.8552, 23.970, 1174.0, 34.2637
42.8878, 23.970, 1168.0, 34.1760
42.9204, 23.970, 1107.0, 33.2716
42.953, 23.970, 1136.0, 33.7046
42.9856, 23.970, 1102.0, 33.1964
43.0182, 23.970, 1144.0, 33.8231
43.0508, 23.970, 1199.0, 34.6266
43.0834, 23.970, 1192.0, 34.5254
43.116, 23.970, 1212.0, 34.8138
43.1486, 23.970, 1300.0, 36.0555
43.1812, 23.970, 1200.0, 34.6410
43.2138, 23.970, 1225.0, 35.0000
43.2464, 23.970, 1176.0, 34.2929
43.279, 23.970, 1154.0, 33.9706
43.3116, 23.970, 1176.0, 34.2929
43.3442, 23.970, 1053.0, 32.4500
43.3768, 23.970, 1091.0, 33.0303
43.4094, 23.970, 1122.0, 33.4963
43.442, 23.970, 1139.0, 33.7491
43.4746, 23.970, 1062.0, 32.5883
43.5072, 23.970, 1147.0, 33.8674
43.5398, 23.970, 1126.0, 33.5559
43.5724, 23.970, 1058.0, 32.5269
43.605, 23.970, 1117.0, 33.4215
43.6376, 23.970, 1057.0, 32.5115
43.6702, 23.970, 1105.0, 33.2415
43.7028, 23.970, 1147.0, 33.8674
43.7354, 23.970, 1091.0, 33.0303
43.768, 23.970, 1096.0, 33.1059
43.8006, 23.970, 1120.0, 33.4664
43.8332, 23.970, 1079.0, 32.8481
43.8658, 23.970, 1081.0, 32.8786
43.8984, 23.970, 1116.0, 33.4066
43.931, 23.970, 1095.0, 33.0908
43.9636, 23.970, 1092.0, 33.0454
43.9962, 23.970, 1079.0, 32.8481
44.0288, 23.970, 1087.0, 32.9697
44.0614, 23.970, 1080.0, 32.8634
44.094, 23.970, 1109.0, 33.3017
44.1266, 23.970, 1078.0, 32.8329
44.1592, 23.970, 1049.0, 32.3883
44.1918, 23.970, 1044.0, 32.3110
44.2244, 23.970, 1082.0, 32.8938
44.257, 23.970, 1119.0, 33.4515
44.2896, 23.970, 1043.0, 32.2955
44.3222, 23.970, 1060.0, 32.5576
44.3548, 23.970, 1058.0, 32.5269
44.3874, 23.970, 1082.0, 32.8938
44.42, 23.970, 1093.0, 33.0606
44.4526, 23.970, 1131.0, 33.6303
44.4852, 23.970, 1104.0, 33.2265
44.5178, 23.970, 1131.0, 33.6303
44.5504, 23.970, 1055.0, 32.4808
44.583, 23.970, 1036.0, 32.1870
44.6156, 23.970, 1087.0, 32.9697
44.6482, 23.970, 1059.0, 32.5423
44.6808, 23.970, 1042.0, 32.2800
44.7134, 23.970, 1061.0, 32.5730
44.746, 23.970, 1015.0, 31.8591
44.7786, 23.970, 1058.0, 32.5269
44.8112, 23.970, 1055.0, 32.4808
44.8438, 23.970, 1041.0, 32.2645
44.8764, 23.970, 1123.0, 33.5112
44.909, 23.970, 1078.0, 32.8329
44.9416, 23.970, 1073.0, 32.7567
44.9742, 23.970, 1054.0, 32.4654
45.0068, 23.970, 1026.0, 32.0312
45.0394, 23.970, 1019.0, 31.9218
45.072, 23.970, 1080.0, 32.8634
45.1046, 23.970, 1082.0, 32.8938
45.1372, 23.970, 1050.0, 32.4037
45.1698, 23.970, 1036.0, 32.1870
45.2024, 23.970, 1062.0, 32.5883
45.235, 23.970, 1062.0, 32.5883
45.2676, 23.970, 1087.0, 32.9697
45.3002, 23.970, 1085.0, 32.9393
45.3328, 23.970, 1051.0, 32.4191
45.3654, 23.970, 1065.0, 32.6343
45.398, 23.970, 1086.0, 32.9545
45.4306, 23.970, 1052.0, 32.4345
45.4632, 23.970, 1049.0, 32.3883
45.4958, 23.970, 1111.0, 33.3317
45.5284, 23.970, 1065.0, 32.6343
45.561, 23.970, 1049.0, 32.3883
45.5936, 23.970, 1090.0, 33.0151
45.6262, 23.970, 1053.0, 32.4500
45.6588, 23.970, 1025.0, 32.0156
45.6914, 23.970, 1094.0, 33.0757
45.724, 23.970, 1030.0, 32.0936
45.7566, 23.970, 1032.0, 32.1248
45.7892, 23.970, 1142.0, 33.7935
45.8218, 23.970, 1058.0, 32.5269
45.8544, 23.970, 1119.0, 33.4515
45.887, 23.970, 1085.0, 32.9393
45.9196, 23.970, 1073.0, 32.7567
45.9522, 23.970, 1129.0, 33.6006
45.9848, 23.970, 1085.0, 32.9393
46.0174, 23.970, 1038.0, 32.2180
46.05, 23.970, 1016.0, 31.8748
46.0826, 23.970, 1019.0, 31.9218
46.1152, 23.970, 1060.0, 32.5576
46.1478, 23.970, 1047.0, 32.3574
46.1804, 23.970, 1114.0, 33.3766
46.213, 23.970, 1026.0, 32.0312
46.2456, 23.970, 1106.0, 33.2566
46.2782, 23.970, 1093.0, 33.0606
46.3108, 23.970, 1055.0, 32.4808
46.3434, 23.970, 1101.0, 33.1813
46.376, 23.970, 1103.0, 33.2114
46.4086, 23.970, 1049.0, 32.3883
46.4412, 23.970, 1028.0, 32.0624
46.4738, 23.970, 1134.0, 33.6749
46.5064, 23.970, 1121.0, 33.4813
46.539, 23.970, 1153.0, 33.9559
46.5716, 23.970, 1088.0, 32.9848
46.6042, 23.970, 1097.0, 33.1210
46.6368, 23.970, 1038.0, 32.2180
46.6694, 23.970, 1039.0, 32.2335
46.702, 23.970, 1113.0, 33.3617
46.7346, 23.970, 1159.0, 34.0441
46.7672, 23.970, 1113.0, 33.3617
46.7998, 23.970, 1176.0, 34.2929
46.8324, 23.970, 1137.0, 33.7194
46.865, 23.970, 1099.0, 33.1512
46.8976, 23.970, 1097.0, 33.1210
46.9302, 23.970, 1212.0, 34.8138
46.9628, 23.970, 1182.0, 34.3802
46.9954, 23.970, 1209.0, 34.7707
47.028, 23.970, 1206.0, 34.7275
47.0606, 23.970, 1291.0, 35.9305
47.0932, 23.970, 1232.0, 35.0999
47.1258, 23.970, 1248.0, 35.3270
47.1584, 23.970, 1266.0, 35.5809
47.191, 23.970, 1366.0, 36.9594
47.2236, 23.970, 1262.0, 35.5246
47.2562, 23.970, 1245.0, 35.2846
47.2888, 23.970, 1345.0, 36.6742
47.3214, 23.970, 1293.0, 35.9583
47.3539, 23.970, 1358.0, 36.8511
47.3865, 23.970, 1410.0, 37.5500
47.4191, 23.970, 1401.0, 37.4299
47.4517, 23.970, 1538.0, 39.2173
47.4843, 23.970, 1546.0, 39.3192
47.5169, 23.970, 1493.0, 38.6394
47.5495, 23.970, 1439.0, 37.9342
47.5821, 23.970, 1384.0, 37.2022
47.6147, 23.970, 1418.0, 37.6563
47.6473, 23.970, 1339.0, 36.5923
47.6799, 23.970, 1307.0, 36.1525
47.7125, 23.970, 1281.0, 35.7911
47.7451, 23.970, 1179.0, 34.3366
47.7777, 23.970, 1208.0, 34.7563
47.8103, 23.970, 1235.0, 35.1426
47.8429, 23.970, 1235.0, 35.1426
47.8755, 23.970, 1196.0, 34.5832
47.9081, 23.970, 1225.0, 35.0000
47.9407, 23.970, 1230.0, 35.0714
47.9733, 23.970, 1230.0, 35.0714
48.0059, 23.970, 1143.0, 33.8083
48.0385, 23.970, 1191.0, 34.5109
48.0711, 23.970, 1152.0, 33.9411
48.1037, 23.970, 1201.0, 34.6554
48.1363, 23.970, 1190.0, 34.4964
48.1689, 23.970, 1183.0, 34.3948
48.2015, 23.970, 1216.0, 34.8712
48.2341, 23.970, 1184.0, 34.4093
48.2667, 23.970, 1142.0, 33.7935
48.2993, 23.970, 1195.0, 34.5688
48.3319, 23.970, 1144.0, 33.8231
48.3645, 23.970, 1179.0, 34.3366
48.3971, 23.970, 1254.0, 35.4119
48.4297, 23.970, 1311.0, 36.2077
48.4623, 23.970, 1430.0, 37.8153
48.4949, 23.970, 1341.0, 36.6197
48.5275, 23.970, 1298.0, 36.0278
48.5601, 23.970, 1239.0, 35.1994
48.5927, 23.970, 1180.0, 34.3511
48.6253, 23.970, 1207.0, 34.7419
48.6579, 23.970, 1099.0, 33.1512
48.6905, 23.970, 1118.0, 33.4365
48.7231, 23.970, 1026.0, 32.0312
48.7557, 23.970, 1070.0, 32.7109
48.7883, 23.970, 1052.0, 32.4345
48.8209, 23.970, 991.0, 31.4802
48.8535, 23.970, 984.0, 31.3688
48.8861, 23.970, 1023.0, 31.9844
48.9187, 23.970, 982.0, 31.3369
48.9513, 23.970, 1029.0, 32.0780
48.9839, 23.970, 1032.0, 32.1248
49.0165, 23.970, 1028.0, 32.0624
49.0491, 23.970, 1053.0, 32.4500
49.0817, 23.970, 996.0, 31.5595
49.1143, 23.970, 970.0, 31.1448
49.1469, 23.970, 948.0, 30.7896
49.1795, 23.970, 986.0, 31.4006
49.2121, 23.970, 1001.0, 31.6386
49.2447, 23.970, 1021.0, 31.9531
49.2773, 23.970, 983.0, 31.3528
49.3099, 23.970, 1003.0, 31.6702
49.3425, 23.970, 1045.0, 32.3265
49.3751, 23.970, 1017.0, 31.8904
49.4077, 23.970, 1045.0, 32.3265
49.4403, 23.970, 979.0, 31.2890
49.4729, 23.970, 993.0, 31.5119
49.5055, 23.970, 986.0, 31.4006
49.5381, 23.970, 979.0, 31.2890
49.5707, 23.970, 1030.0, 32.0936
49.6033, 23.970, 975.0, 31.2250
49.6359, 23.970, 1028.0, 32.0624
49.6685, 23.970, 983.0, 31.3528
49.7011, 23.970, 973.0, 31.1929
49.7337, 23.970, 1074.0, 32.7719
49.7663, 23.970, 1070.0, 32.7109
49.7989, 23.970, 1037.0, 32.2025
49.8315, 23.970, 1005.0, 31.7017
49.8641, 23.970, 1109.0, 33.3017
49.8967, 23.970, 1003.0, 31.6702
49.9293, 23.970, 983.0, 31.3528
49.9619, 23.970, 952.0, 30.8545
49.9945, 23.970, 959.0, 30.9677