File: data/DSC/HDPE_2.csv
[Measurement conditions]
Sample identification,HDPE_2
Comment,
Anode material,Cu
K-Alpha1 wavelength,1.5406
K-Alpha2 wavelength,1.54443
Ratio K-Alpha2/K-Alpha1,0.500
Divergence slit,Fixed,0.38mm
Monochromator used,NO
Generator voltage, 40
Tube current, 15
File date and time,26/Feb/2025 11:37
Unit cell,
h k l, 0 0 0
Scan axis,Gonio
Scan range,5.002,49.9999
Scan step size,0.0108664
No. of points, 4141
Scan type,CONTINUOUS
Time per step,23.970
[Scan points]
Angle, TimePerStep, Intensity, ESD
5.00743, 23.970, 1607.0, 40.0874
5.04003, 23.970, 1547.0, 39.3319
5.07263, 23.970, 1606.0, 40.0749
5.10523, 23.970, 1618.0, 40.2244
5.13783, 23.970, 1640.0, 40.4969
5.17043, 23.970, 1739.0, 41.7013
5.20303, 23.970, 1624.0, 40.2989
5.23563, 23.970, 1705.0, 41.2916
5.26823, 23.970, 1748.0, 41.8091
5.30083, 23.970, 1719.0, 41.4608
5.33343, 23.970, 1658.0, 40.7185
5.36603, 23.970, 1672.0, 40.8901
5.39863, 23.970, 1690.0, 41.1096
5.43122, 23.970, 1754.0, 41.8808
5.46382, 23.970, 1792.0, 42.3320
5.49642, 23.970, 1818.0, 42.6380
5.52902, 23.970, 1792.0, 42.3320
5.56162, 23.970, 1823.0, 42.6966
5.59422, 23.970, 1847.0, 42.9767
5.62682, 23.970, 1857.0, 43.0929
5.65942, 23.970, 1861.0, 43.1393
5.69202, 23.970, 1911.0, 43.7150
5.72462, 23.970, 1930.0, 43.9318
5.75722, 23.970, 1916.0, 43.7721
5.78982, 23.970, 1868.0, 43.2204
5.82242, 23.970, 1940.0, 44.0454
5.85502, 23.970, 1952.0, 44.1814
5.88761, 23.970, 1960.0, 44.2719
5.92021, 23.970, 1909.0, 43.6921
5.95281, 23.970, 2039.0, 45.1553
5.98541, 23.970, 2038.0, 45.1442
6.01801, 23.970, 2103.0, 45.8585
6.05061, 23.970, 2067.0, 45.4643
6.08321, 23.970, 1964.0, 44.3170
6.11581, 23.970, 2182.0, 46.7119
6.14841, 23.970, 2108.0, 45.9130
6.18101, 23.970, 2027.0, 45.0222
6.21361, 23.970, 2061.0, 45.3982
6.24621, 23.970, 2106.0, 45.8912
6.27881, 23.970, 2134.0, 46.1952
6.31141, 23.970, 2187.0, 46.7654
6.34401, 23.970, 2137.0, 46.2277
6.3766, 23.970, 2113.0, 45.9674
6.4092, 23.970, 2193.0, 46.8295
6.4418, 23.970, 2204.0, 46.9468
6.4744, 23.970, 2249.0, 47.4236
6.507, 23.970, 2126.0, 46.1086
6.5396, 23.970, 2263.0, 47.5710
6.5722, 23.970, 2180.0, 46.6905
6.6048, 23.970, 2249.0, 47.4236
6.6374, 23.970, 2284.0, 47.7912
6.67, 23.970, 2305.0, 48.0104
6.7026, 23.970, 2329.0, 48.2597
6.7352, 23.970, 2193.0, 46.8295
6.7678, 23.970, 2337.0, 48.3425
6.8004, 23.970, 2274.0, 47.6865
6.833, 23.970, 2309.0, 48.0521
6.86559, 23.970, 2336.0, 48.3322
6.89819, 23.970, 2281.0, 47.7598
6.93079, 23.970, 2284.0, 47.7912
6.96339, 23.970, 2281.0, 47.7598
6.99599, 23.970, 2363.0, 48.6107
7.02859, 23.970, 2399.0, 48.9796
7.06119, 23.970, 2352.0, 48.4974
7.09379, 23.970, 2513.0, 50.1298
7.12639, 23.970, 2502.0, 50.0200
7.15899, 23.970, 2443.0, 49.4267
7.19159, 23.970, 2376.0, 48.7442
7.22419, 23.970, 2512.0, 50.1199
7.25679, 23.970, 2543.0, 50.4282
7.28939, 23.970, 2452.0, 49.5177
7.32198, 23.970, 2461.0, 49.6085
7.35458, 23.970, 2434.0, 49.3356
7.38718, 23.970, 2501.0, 50.0100
7.41978, 23.970, 2576.0, 50.7543
7.45238, 23.970, 2568.0, 50.6754
7.48498, 23.970, 2670.0, 51.6720
7.51758, 23.970, 2622.0, 51.2055
7.55018, 23.970, 2786.0, 52.7826
7.58278, 23.970, 2537.0, 50.3686
7.61538, 23.970, 2588.0, 50.8724
7.64798, 23.970, 2504.0, 50.0400
7.68058, 23.970, 2621.0, 51.1957
7.71318, 23.970, 2599.0, 50.9804
7.74578, 23.970, 2641.0, 51.3907
7.77838, 23.970, 2616.0, 51.1468
7.81097, 23.970, 2685.0, 51.8170
7.84357, 23.970, 2633.0, 51.3128
7.87617, 23.970, 2628.0, 51.2640
7.90877, 23.970, 2628.0, 51.2640
7.94137, 23.970, 2677.0, 51.7397
7.97397, 23.970, 2698.0, 51.9423
8.00657, 23.970, 2678.0, 51.7494
8.03917, 23.970, 2576.0, 50.7543
8.07177, 23.970, 2705.0, 52.0096
8.10437, 23.970, 2678.0, 51.7494
8.13697, 23.970, 2725.0, 52.2015
8.16957, 23.970, 2698.0, 51.9423
8.20217, 23.970, 2733.0, 52.2781
8.23477, 23.970, 2693.0, 51.8941
8.26737, 23.970, 2887.0, 53.7308
8.29996, 23.970, 2670.0, 51.6720
8.33256, 23.970, 2821.0, 53.1131
8.36516, 23.970, 2719.0, 52.1440
8.39776, 23.970, 2649.0, 51.4684
8.43036, 23.970, 2757.0, 52.5071
8.46296, 23.970, 2683.0, 51.7977
8.49556, 23.970, 2861.0, 53.4883
8.52816, 23.970, 2791.0, 52.8299
8.56076, 23.970, 2797.0, 52.8867
8.59336, 23.970, 2832.0, 53.2165
8.62596, 23.970, 2760.0, 52.5357
8.65856, 23.970, 2758.0, 52.5167
8.69116, 23.970, 2719.0, 52.1440
8.72376, 23.970, 2808.0, 52.9906
8.75636, 23.970, 2752.0, 52.4595
8.78895, 23.970, 2823.0, 53.1319
8.82155, 23.970, 2681.0, 51.7784
8.85415, 23.970, 2748.0, 52.4214
8.88675, 23.970, 2732.0, 52.2685
8.91935, 23.970, 2642.0, 51.4004
8.95195, 23.970, 2832.0, 53.2165
8.98455, 23.970, 2810.0, 53.0094
9.01715, 23.970, 2840.0, 53.2917
9.04975, 23.970, 2747.0, 52.4118
9.08235, 23.970, 2736.0, 52.3068
9.11495, 23.970, 2796.0, 52.8772
9.14755, 23.970, 2724.0, 52.1920
9.18015, 23.970, 2694.0, 51.9038
9.21275, 23.970, 2680.0, 51.7687
9.24534, 23.970, 2689.0, 51.8556
9.27794, 23.970, 2780.0, 52.7257
9.31054, 23.970, 2683.0, 51.7977
9.34314, 23.970, 2811.0, 53.0189
9.37574, 23.970, 2661.0, 51.5849
9.40834, 23.970, 2826.0, 53.1601
9.44094, 23.970, 2632.0, 51.3030
9.47354, 23.970, 2749.0, 52.4309
9.50614, 23.970, 2693.0, 51.8941
9.53874, 23.970, 2848.0, 53.3667
9.57134, 23.970, 2669.0, 51.6624
9.60394, 23.970, 2691.0, 51.8748
9.63654, 23.970, 2671.0, 51.6817
9.66914, 23.970, 2670.0, 51.6720
9.70174, 23.970, 2636.0, 51.3420
9.73433, 23.970, 2674.0, 51.7107
9.76693, 23.970, 2684.0, 51.8073
9.79953, 23.970, 2735.0, 52.2972
9.83213, 23.970, 2694.0, 51.9038
9.86473, 23.970, 2651.0, 51.4879
9.89733, 23.970, 2700.0, 51.9615
9.92993, 23.970, 2644.0, 51.4198
9.96253, 23.970, 2673.0, 51.7011
9.99513, 23.970, 2696.0, 51.9230
10.0277, 23.970, 2786.0, 52.7826
10.0603, 23.970, 2608.0, 51.0686
10.0929, 23.970, 2637.0, 51.3517
10.1255, 23.970, 2672.0, 51.6914
10.1581, 23.970, 2645.0, 51.4296
10.1907, 23.970, 2702.0, 51.9808
10.2233, 23.970, 2657.0, 51.5461
10.2559, 23.970, 2496.0, 49.9600
10.2885, 23.970, 2608.0, 51.0686
10.3211, 23.970, 2628.0, 51.2640
10.3537, 23.970, 2614.0, 51.1273
10.3863, 23.970, 2610.0, 51.0882
10.4189, 23.970, 2500.0, 50.0000
10.4515, 23.970, 2594.0, 50.9313
10.4841, 23.970, 2573.0, 50.7247
10.5167, 23.970, 2557.0, 50.5668
10.5493, 23.970, 2518.0, 50.1797
10.5819, 23.970, 2505.0, 50.0500
10.6145, 23.970, 2583.0, 50.8232
10.6471, 23.970, 2513.0, 50.1298
10.6797, 23.970, 2537.0, 50.3686
10.7123, 23.970, 2567.0, 50.6656
10.7449, 23.970, 2529.0, 50.2892
10.7775, 23.970, 2610.0, 51.0882
10.8101, 23.970, 2527.0, 50.2693
10.8427, 23.970, 2471.0, 49.7092
10.8753, 23.970, 2442.0, 49.4166
10.9079, 23.970, 2548.0, 50.4777
10.9405, 23.970, 2425.0, 49.2443
10.9731, 23.970, 2552.0, 50.5173
11.0057, 23.970, 2416.0, 49.1528
11.0383, 23.970, 2544.0, 50.4381
11.0709, 23.970, 2323.0, 48.1975
11.1035, 23.970, 2460.0, 49.5984
11.1361, 23.970, 2482.0, 49.8197
11.1687, 23.970, 2469.0, 49.6890
11.2013, 23.970, 2344.0, 48.4149
11.2339, 23.970, 2493.0, 49.9300
11.2665, 23.970, 2423.0, 49.2240
11.2991, 23.970, 2302.0, 47.9792
11.3317, 23.970, 2384.0, 48.8262
11.3643, 23.970, 2391.0, 48.8979
11.3969, 23.970, 2458.0, 49.5782
11.4295, 23.970, 2455.0, 49.5480
11.4621, 23.970, 2440.0, 49.3964
11.4947, 23.970, 2395.0, 48.9387
11.5273, 23.970, 2420.0, 49.1935
11.5599, 23.970, 2423.0, 49.2240
11.5925, 23.970, 2258.0, 47.5184
11.6251, 23.970, 2372.0, 48.7032
11.6577, 23.970, 2285.0, 47.8017
11.6903, 23.970, 2349.0, 48.4665
11.7229, 23.970, 2384.0, 48.8262
11.7555, 23.970, 2398.0, 48.9694
11.7881, 23.970, 2265.0, 47.5920
11.8207, 23.970, 2330.0, 48.2701
11.8533, 23.970, 2386.0, 48.8467
11.8859, 23.970, 2292.0, 47.8748
11.9185, 23.970, 2259.0, 47.5289
11.9511, 23.970, 2230.0, 47.2229
11.9837, 23.970, 2393.0, 48.9183
12.0163, 23.970, 2236.0, 47.2864
12.0489, 23.970, 2273.0, 47.6760
12.0815, 23.970, 2308.0, 48.0416
12.1141, 23.970, 2234.0, 47.2652
12.1467, 23.970, 2214.0, 47.0532
12.1793, 23.970, 2250.0, 47.4342
12.2119, 23.970, 2279.0, 47.7389
12.2445, 23.970, 2194.0, 46.8402
12.2771, 23.970, 2264.0, 47.5815
12.3097, 23.970, 2159.0, 46.4650
12.3423, 23.970, 2296.0, 47.9166
12.3749, 23.970, 2302.0, 47.9792
12.4075, 23.970, 2219.0, 47.1063
12.4401, 23.970, 2169.0, 46.5725
12.4727, 23.970, 2254.0, 47.4763
12.5053, 23.970, 2284.0, 47.7912
12.5379, 23.970, 2069.0, 45.4863
12.5705, 23.970, 2173.0, 46.6154
12.6031, 23.970, 2306.0, 48.0208
12.6357, 23.970, 2118.0, 46.0217
12.6683, 23.970, 2216.0, 47.0744
12.7009, 23.970, 2130.0, 46.1519
12.7335, 23.970, 2157.0, 46.4435
12.7661, 23.970, 2189.0, 46.7868
12.7987, 23.970, 2247.0, 47.4025
12.8313, 23.970, 2209.0, 47.0000
12.8639, 23.970, 2124.0, 46.0869
12.8965, 23.970, 2237.0, 47.2969
12.9291, 23.970, 2132.0, 46.1736
12.9617, 23.970, 2277.0, 47.7179
12.9943, 23.970, 2097.0, 45.7930
13.0269, 23.970, 2061.0, 45.3982
13.0595, 23.970, 2154.0, 46.4112
13.0921, 23.970, 2137.0, 46.2277
13.1247, 23.970, 2144.0, 46.3033
13.1573, 23.970, 2140.0, 46.2601
13.1899, 23.970, 2143.0, 46.2925
13.2225, 23.970, 2154.0, 46.4112
13.2551, 23.970, 2066.0, 45.4533
13.2877, 23.970, 2058.0, 45.3652
13.3203, 23.970, 2086.0, 45.6727
13.3529, 23.970, 2161.0, 46.4866
13.3855, 23.970, 2131.0, 46.1628
13.4181, 23.970, 2154.0, 46.4112
13.4507, 23.970, 2098.0, 45.8039
13.4833, 23.970, 2125.0, 46.0977
13.5159, 23.970, 2186.0, 46.7547
13.5485, 23.970, 2191.0, 46.8081
13.5811, 23.970, 2146.0, 46.3249
13.6137, 23.970, 2182.0, 46.7119
13.6463, 23.970, 2215.0, 47.0638
13.6789, 23.970, 2182.0, 46.7119
13.7115, 23.970, 2150.0, 46.3681
13.7441, 23.970, 2122.0, 46.0652
13.7767, 23.970, 2131.0, 46.1628
13.8092, 23.970, 2096.0, 45.7821
13.8418, 23.970, 2086.0, 45.6727
13.8744, 23.970, 2062.0, 45.4093
13.907, 23.970, 2135.0, 46.2061
13.9396, 23.970, 2180.0, 46.6905
13.9722, 23.970, 2169.0, 46.5725
14.0048, 23.970, 2135.0, 46.2061
14.0374, 23.970, 1985.0, 44.5533
14.07, 23.970, 2185.0, 46.7440
14.1026, 23.970, 2154.0, 46.4112
14.1352, 23.970, 2185.0, 46.7440
14.1678, 23.970, 2176.0, 46.6476
14.2004, 23.970, 2123.0, 46.0760
14.233, 23.970, 2137.0, 46.2277
14.2656, 23.970, 2235.0, 47.2758
14.2982, 23.970, 2142.0, 46.2817
14.3308, 23.970, 2178.0, 46.6690
14.3634, 23.970, 2163.0, 46.5081
14.396, 23.970, 2156.0, 46.4327
14.4286, 23.970, 2152.0, 46.3897
14.4612, 23.970, 2238.0, 47.3075
14.4938, 23.970, 2253.0, 47.4658
14.5264, 23.970, 2138.0, 46.2385
14.559, 23.970, 2255.0, 47.4868
14.5916, 23.970, 2178.0, 46.6690
14.6242, 23.970, 2195.0, 46.8508
14.6568, 23.970, 2227.0, 47.1911
14.6894, 23.970, 2170.0, 46.5833
14.722, 23.970, 2243.0, 47.3603
14.7546, 23.970, 2307.0, 48.0312
14.7872, 23.970, 2238.0, 47.3075
14.8198, 23.970, 2266.0, 47.6025
14.8524, 23.970, 2277.0, 47.7179
14.885, 23.970, 2294.0, 47.8957
14.9176, 23.970, 2289.0, 47.8435
14.9502, 23.970, 2417.0, 49.1630
14.9828, 23.970, 2286.0, 47.8121
15.0154, 23.970, 2319.0, 48.1560
15.048, 23.970, 2315.0, 48.1144
15.0806, 23.970, 2405.0, 49.0408
15.1132, 23.970, 2310.0, 48.0625
15.1458, 23.970, 2269.0, 47.6340
15.1784, 23.970, 2337.0, 48.3425
15.211, 23.970, 2447.0, 49.4672
15.2436, 23.970, 2430.0, 49.2950
15.2762, 23.970, 2438.0, 49.3761
15.3088, 23.970, 2358.0, 48.5592
15.3414, 23.970, 2348.0, 48.4562
15.374, 23.970, 2427.0, 49.2646
15.4066, 23.970, 2413.0, 49.1223
15.4392, 23.970, 2323.0, 48.1975
15.4718, 23.970, 2384.0, 48.8262
15.5044, 23.970, 2375.0, 48.7340
15.537, 23.970, 2407.0, 49.0612
15.5696, 23.970, 2442.0, 49.4166
15.6022, 23.970, 2478.0, 49.7795
15.6348, 23.970, 2475.0, 49.7494
15.6674, 23.970, 2522.0, 50.2195
15.7, 23.970, 2459.0, 49.5883
15.7326, 23.970, 2494.0, 49.9400
15.7652, 23.970, 2430.0, 49.2950
15.7978, 23.970, 2472.0, 49.7192
15.8304, 23.970, 2497.0, 49.9700
15.863, 23.970, 2605.0, 51.0392
15.8956, 23.970, 2495.0, 49.9500
15.9282, 23.970, 2575.0, 50.7445
15.9608, 23.970, 2573.0, 50.7247
15.9934, 23.970, 2678.0, 51.7494
16.026, 23.970, 2624.0, 51.2250
16.0586, 23.970, 2703.0, 51.9904
16.0912, 23.970, 2659.0, 51.5655
16.1238, 23.970, 2528.0, 50.2792
16.1564, 23.970, 2643.0, 51.4101
16.189, 23.970, 2749.0, 52.4309
16.2216, 23.970, 2618.0, 51.1664
16.2542, 23.970, 2676.0, 51.7301
16.2868, 23.970, 2723.0, 52.1824
16.3194, 23.970, 2744.0, 52.3832
16.352, 23.970, 2831.0, 53.2071
16.3846, 23.970, 2724.0, 52.1920
16.4172, 23.970, 2777.0, 52.6972
16.4498, 23.970, 2879.0, 53.6563
16.4824, 23.970, 2838.0, 53.2729
16.515, 23.970, 2959.0, 54.3967
16.5476, 23.970, 3018.0, 54.9363
16.5802, 23.970, 2919.0, 54.0278
16.6128, 23.970, 3070.0, 55.4076
16.6454, 23.970, 2969.0, 54.4885
16.678, 23.970, 3038.0, 55.1181
16.7106, 23.970, 2964.0, 54.4426
16.7432, 23.970, 2973.0, 54.5252
16.7758, 23.970, 3007.0, 54.8361
16.8084, 23.970, 3068.0, 55.3895
16.841, 23.970, 3095.0, 55.6327
16.8736, 23.970, 2985.0, 54.6352
16.9062, 23.970, 3170.0, 56.3028
16.9388, 23.970, 3149.0, 56.1160
16.9714, 23.970, 3151.0, 56.1338
17.004, 23.970, 3282.0, 57.2887
17.0366, 23.970, 3167.0, 56.2761
17.0692, 23.970, 3151.0, 56.1338
17.1018, 23.970, 3432.0, 58.5833
17.1344, 23.970, 3311.0, 57.5413
17.167, 23.970, 3375.0, 58.0948
17.1996, 23.970, 3497.0, 59.1354
17.2322, 23.970, 3513.0, 59.2706
17.2648, 23.970, 3455.0, 58.7792
17.2974, 23.970, 3515.0, 59.2874
17.33, 23.970, 3435.0, 58.6089
17.3626, 23.970, 3606.0, 60.0500
17.3952, 23.970, 3601.0, 60.0083
17.4278, 23.970, 3643.0, 60.3573
17.4604, 23.970, 3785.0, 61.5224
17.493, 23.970, 3748.0, 61.2209
17.5256, 23.970, 3820.0, 61.8061
17.5582, 23.970, 3797.0, 61.6198
17.5908, 23.970, 3733.0, 61.0983
17.6234, 23.970, 3890.0, 62.3699
17.656, 23.970, 3878.0, 62.2736
17.6886, 23.970, 3798.0, 61.6279
17.7212, 23.970, 3916.0, 62.5780
17.7538, 23.970, 4003.0, 63.2693
17.7864, 23.970, 4040.0, 63.5610
17.819, 23.970, 4047.0, 63.6160
17.8516, 23.970, 4012.0, 63.3404
17.8842, 23.970, 4046.0, 63.6082
17.9168, 23.970, 4234.0, 65.0692
17.9494, 23.970, 4206.0, 64.8537
17.982, 23.970, 4265.0, 65.3070
18.0146, 23.970, 4249.0, 65.1844
18.0472, 23.970, 4387.0, 66.2344
18.0798, 23.970, 4367.0, 66.0833
18.1124, 23.970, 4453.0, 66.7308
18.145, 23.970, 4434.0, 66.5883
18.1776, 23.970, 4555.0, 67.4907
18.2102, 23.970, 4378.0, 66.1665
18.2428, 23.970, 4536.0, 67.3498
18.2754, 23.970, 4562.0, 67.5426
18.308, 23.970, 4626.0, 68.0147
18.3406, 23.970, 4719.0, 68.6950
18.3732, 23.970, 4826.0, 69.4694
18.4058, 23.970, 4774.0, 69.0941
18.4384, 23.970, 4848.0, 69.6276
18.471, 23.970, 4965.0, 70.4628
18.5036, 23.970, 4894.0, 69.9571
18.5362, 23.970, 4991.0, 70.6470
18.5688, 23.970, 5020.0, 70.8520
18.6013, 23.970, 5020.0, 70.8520
18.6339, 23.970, 5053.0, 71.0845
18.6665, 23.970, 5179.0, 71.9653
18.6991, 23.970, 5236.0, 72.3602
18.7317, 23.970, 5160.0, 71.8331
18.7643, 23.970, 5238.0, 72.3740
18.7969, 23.970, 5277.0, 72.6430
18.8295, 23.970, 5336.0, 73.0479
18.8621, 23.970, 5273.0, 72.6154
18.8947, 23.970, 5420.0, 73.6206
18.9273, 23.970, 5534.0, 74.3909
18.9599, 23.970, 5512.0, 74.2428
18.9925, 23.970, 5487.0, 74.0743
19.0251, 23.970, 5606.0, 74.8732
19.0577, 23.970, 5667.0, 75.2795
19.0903, 23.970, 5783.0, 76.0460
19.1229, 23.970, 5780.0, 76.0263
19.1555, 23.970, 5870.0, 76.6159
19.1881, 23.970, 5893.0, 76.7659
19.2207, 23.970, 5881.0, 76.6877
19.2533, 23.970, 5922.0, 76.9545
19.2859, 23.970, 6058.0, 77.8332
19.3185, 23.970, 6041.0, 77.7239
19.3511, 23.970, 6133.0, 78.3135
19.3837, 23.970, 6138.0, 78.3454
19.4163, 23.970, 6164.0, 78.5111
19.4489, 23.970, 6370.0, 79.8123
19.4815, 23.970, 6254.0, 79.0822
19.5141, 23.970, 6344.0, 79.6492
19.5467, 23.970, 6433.0, 80.2060
19.5793, 23.970, 6336.0, 79.5990
19.6119, 23.970, 6365.0, 79.7810
19.6445, 23.970, 6372.0, 79.8248
19.6771, 23.970, 6323.0, 79.5173
19.7097, 23.970, 6435.0, 80.2185
19.7423, 23.970, 6268.0, 79.1707
19.7749, 23.970, 6536.0, 80.8455
19.8075, 23.970, 6353.0, 79.7057
19.8401, 23.970, 6453.0, 80.3306
19.8727, 23.970, 6516.0, 80.7217
19.9053, 23.970, 6531.0, 80.8146
19.9379, 23.970, 6477.0, 80.4798
19.9705, 23.970, 6556.0, 80.9691
20.0031, 23.970, 6511.0, 80.6908
20.0357, 23.970, 6577.0, 81.0987
20.0683, 23.970, 6464.0, 80.3990
20.1009, 23.970, 6673.0, 81.6884
20.1335, 23.970, 6614.0, 81.3265
20.1661, 23.970, 6658.0, 81.5966
20.1987, 23.970, 6752.0, 82.1706
20.2313, 23.970, 6891.0, 83.0120
20.2639, 23.970, 6930.0, 83.2466
20.2965, 23.970, 6841.0, 82.7103
20.3291, 23.970, 7069.0, 84.0773
20.3617, 23.970, 7032.0, 83.8570
20.3943, 23.970, 7274.0, 85.2877
20.4269, 23.970, 7221.0, 84.9765
20.4595, 23.970, 7466.0, 86.4060
20.4921, 23.970, 7681.0, 87.6413
20.5247, 23.970, 7671.0, 87.5842
20.5573, 23.970, 7851.0, 88.6059
20.5899, 23.970, 7946.0, 89.1403
20.6225, 23.970, 8470.0, 92.0326
20.6551, 23.970, 8499.0, 92.1900
20.6877, 23.970, 8965.0, 94.6837
20.7203, 23.970, 9496.0, 97.4474
20.7529, 23.970, 10051.0, 100.2547
20.7855, 23.970, 10554.0, 102.7327
20.8181, 23.970, 11300.0, 106.3015
20.8507, 23.970, 12269.0, 110.7655
20.8833, 23.970, 13054.0, 114.2541
20.9159, 23.970, 14523.0, 120.5114
20.9485, 23.970, 15704.0, 125.3156
20.9811, 23.970, 17572.0, 132.5594
21.0137, 23.970, 19263.0, 138.7912
21.0463, 23.970, 21131.0, 145.3651
21.0789, 23.970, 22790.0, 150.9636
21.1115, 23.970, 25085.0, 158.3824
21.1441, 23.970, 27255.0, 165.0909
21.1767, 23.970, 30139.0, 173.6059
21.2093, 23.970, 32846.0, 181.2347
21.2419, 23.970, 36384.0, 190.7459
21.2745, 23.970, 40783.0, 201.9480
21.3071, 23.970, 44548.0, 211.0640
21.3397, 23.970, 49839.0, 223.2465
21.3723, 23.970, 55364.0, 235.2956
21.4049, 23.970, 61214.0, 247.4146
21.4375, 23.970, 69246.0, 263.1463
21.4701, 23.970, 77169.0, 277.7931
21.5027, 23.970, 86244.0, 293.6733
21.5353, 23.970, 95546.0, 309.1052
21.5679, 23.970, 102331.0, 319.8922
21.6005, 23.970, 104104.0, 322.6515
21.6331, 23.970, 101002.0, 317.8081
21.6657, 23.970, 92590.0, 304.2860
21.6983, 23.970, 78754.0, 280.6314
21.7309, 23.970, 63564.0, 252.1190
21.7635, 23.970, 48594.0, 220.4405
21.7961, 23.970, 36543.0, 191.1622
21.8287, 23.970, 27350.0, 165.3784
21.8613, 23.970, 21085.0, 145.2067
21.8939, 23.970, 17181.0, 131.0763
21.9265, 23.970, 13852.0, 117.6945
21.9591, 23.970, 12087.0, 109.9409
21.9917, 23.970, 10892.0, 104.3647
22.0243, 23.970, 9662.0, 98.2955
22.0569, 23.970, 8709.0, 93.3220
22.0895, 23.970, 8244.0, 90.7965
22.1221, 23.970, 7573.0, 87.0230
22.1547, 23.970, 7114.0, 84.3445
22.1873, 23.970, 6773.0, 82.2982
22.2199, 23.970, 6378.0, 79.8624
22.2525, 23.970, 6415.0, 80.0937
22.2851, 23.970, 6011.0, 77.5306
22.3177, 23.970, 5877.0, 76.6616
22.3503, 23.970, 5854.0, 76.5114
22.3829, 23.970, 5772.0, 75.9737
22.4155, 23.970, 5489.0, 74.0878
22.4481, 23.970, 5386.0, 73.3894
22.4807, 23.970, 5377.0, 73.3280
22.5133, 23.970, 5374.0, 73.3076
22.5459, 23.970, 5237.0, 72.3671
22.5785, 23.970, 5216.0, 72.2219
22.6111, 23.970, 5048.0, 71.0493
22.6437, 23.970, 5019.0, 70.8449
22.6763, 23.970, 5006.0, 70.7531
22.7089, 23.970, 4853.0, 69.6635
22.7415, 23.970, 5031.0, 70.9295
22.7741, 23.970, 4925.0, 70.1783
22.8067, 23.970, 4758.0, 68.9783
22.8393, 23.970, 4726.0, 68.7459
22.8719, 23.970, 4934.0, 70.2424
22.9045, 23.970, 4833.0, 69.5198
22.9371, 23.970, 4831.0, 69.5054
22.9697, 23.970, 4912.0, 70.0857
23.0023, 23.970, 4997.0, 70.6895
23.0349, 23.970, 4935.0, 70.2496
23.0675, 23.970, 5166.0, 71.8749
23.1001, 23.970, 5095.0, 71.3793
23.1327, 23.970, 5283.0, 72.6842
23.1653, 23.970, 5479.0, 74.0203
23.1979, 23.970, 5626.0, 75.0067
23.2305, 23.970, 5798.0, 76.1446
23.2631, 23.970, 5879.0, 76.6746
23.2957, 23.970, 6237.0, 78.9747
23.3283, 23.970, 6548.0, 80.9197
23.3609, 23.970, 6683.0, 81.7496
23.3934, 23.970, 7324.0, 85.5804
23.426, 23.970, 7514.0, 86.6833
23.4586, 23.970, 8022.0, 89.5656
23.4912, 23.970, 8495.0, 92.1683
23.5238, 23.970, 9098.0, 95.3834
23.5564, 23.970, 9521.0, 97.5756
23.589, 23.970, 10135.0, 100.6727
23.6216, 23.970, 10721.0, 103.5423
23.6542, 23.970, 11506.0, 107.2660
23.6868, 23.970, 12330.0, 111.0405
23.7194, 23.970, 13202.0, 114.9000
23.752, 23.970, 14327.0, 119.6954
23.7846, 23.970, 15317.0, 123.7619
23.8172, 23.970, 16893.0, 129.9731
23.8498, 23.970, 18237.0, 135.0444
23.8824, 23.970, 19757.0, 140.5596
23.915, 23.970, 21407.0, 146.3113
23.9476, 23.970, 22538.0, 150.1266
23.9802, 23.970, 23159.0, 152.1808
24.0128, 23.970, 23384.0, 152.9183
24.0454, 23.970, 22320.0, 149.3988
24.078, 23.970, 20897.0, 144.5579
24.1106, 23.970, 18778.0, 137.0328
24.1432, 23.970, 16412.0, 128.1093
24.1758, 23.970, 13836.0, 117.6265
24.2084, 23.970, 11814.0, 108.6922
24.241, 23.970, 9961.0, 99.8048
24.2736, 23.970, 8366.0, 91.4658
24.3062, 23.970, 7078.0, 84.1309
24.3388, 23.970, 6150.0, 78.4219
24.3714, 23.970, 5417.0, 73.6003
24.404, 23.970, 4791.0, 69.2170
24.4366, 23.970, 4372.0, 66.1211
24.4692, 23.970, 3945.0, 62.8092
24.5018, 23.970, 3735.0, 61.1146
24.5344, 23.970, 3618.0, 60.1498
24.567, 23.970, 3394.0, 58.2580
24.5996, 23.970, 3397.0, 58.2838
24.6322, 23.970, 3202.0, 56.5862
24.6648, 23.970, 3116.0, 55.8211
24.6974, 23.970, 2981.0, 54.5985
24.73, 23.970, 2972.0, 54.5161
24.7626, 23.970, 2874.0, 53.6097
24.7952, 23.970, 2914.0, 53.9815
24.8278, 23.970, 2822.0, 53.1225
24.8604, 23.970, 2719.0, 52.1440
24.893, 23.970, 2698.0, 51.9423
24.9256, 23.970, 2643.0, 51.4101
24.9582, 23.970, 2699.0, 51.9519
24.9908, 23.970, 2534.0, 50.3389
25.0234, 23.970, 2568.0, 50.6754
25.056, 23.970, 2505.0, 50.0500
25.0886, 23.970, 2491.0, 49.9099
25.1212, 23.970, 2421.0, 49.2037
25.1538, 23.970, 2382.0, 48.8057
25.1864, 23.970, 2310.0, 48.0625
25.219, 23.970, 2470.0, 49.6991
25.2516, 23.970, 2297.0, 47.9270
25.2842, 23.970, 2272.0, 47.6655
25.3168, 23.970, 2301.0, 47.9687
25.3494, 23.970, 2239.0, 47.3181
25.382, 23.970, 2287.0, 47.8226
25.4146, 23.970, 2277.0, 47.7179
25.4472, 23.970, 2213.0, 47.0425
25.4798, 23.970, 2126.0, 46.1086
25.5124, 23.970, 2190.0, 46.7974
25.545, 23.970, 2146.0, 46.3249
25.5776, 23.970, 2144.0, 46.3033
25.6102, 23.970, 2124.0, 46.0869
25.6428, 23.970, 2020.0, 44.9444
25.6754, 23.970, 2064.0, 45.4313
25.708, 23.970, 2014.0, 44.8776
25.7406, 23.970, 1999.0, 44.7102
25.7732, 23.970, 2040.0, 45.1664
25.8058, 23.970, 2044.0, 45.2106
25.8384, 23.970, 2033.0, 45.0888
25.871, 23.970, 2032.0, 45.0777
25.9036, 23.970, 2013.0, 44.8665
25.9362, 23.970, 1941.0, 44.0568
25.9688, 23.970, 1943.0, 44.0795
26.0014, 23.970, 1875.0, 43.3013
26.034, 23.970, 1893.0, 43.5086
26.0666, 23.970, 1954.0, 44.2041
26.0992, 23.970, 1931.0, 43.9431
26.1318, 23.970, 1959.0, 44.2606
26.1644, 23.970, 1868.0, 43.2204
26.197, 23.970, 1825.0, 42.7200
26.2296, 23.970, 1809.0, 42.5323
26.2622, 23.970, 1808.0, 42.5206
26.2948, 23.970, 1849.0, 43.0000
26.3274, 23.970, 1854.0, 43.0581
26.36, 23.970, 1795.0, 42.3674
26.3926, 23.970, 1692.0, 41.1339
26.4252, 23.970, 1771.0, 42.0833
26.4578, 23.970, 1784.0, 42.2374
26.4904, 23.970, 1744.0, 41.7612
26.523, 23.970, 1771.0, 42.0833
26.5556, 23.970, 1657.0, 40.7063
26.5882, 23.970, 1732.0, 41.6173
26.6208, 23.970, 1798.0, 42.4028
26.6534, 23.970, 1781.0, 42.2019
26.686, 23.970, 1653.0, 40.6571
26.7186, 23.970, 1739.0, 41.7013
26.7512, 23.970, 1776.0, 42.1426
26.7838, 23.970, 1709.0, 41.3401
26.8164, 23.970, 1673.0, 40.9023
26.849, 23.970, 1622.0, 40.2741
26.8816, 23.970, 1640.0, 40.4969
26.9142, 23.970, 1695.0, 41.1704
26.9468, 23.970, 1650.0, 40.6202
26.9794, 23.970, 1623.0, 40.2865
27.012, 23.970, 1606.0, 40.0749
27.0446, 23.970, 1604.0, 40.0500
27.0772, 23.970, 1634.0, 40.4228
27.1098, 23.970, 1595.0, 39.9375
27.1424, 23.970, 1661.0, 40.7554
27.175, 23.970, 1567.0, 39.5854
27.2076, 23.970, 1540.0, 39.2428
27.2402, 23.970, 1624.0, 40.2989
27.2728, 23.970, 1514.0, 38.9102
27.3054, 23.970, 1508.0, 38.8330
27.338, 23.970, 1602.0, 40.0250
27.3706, 23.970, 1542.0, 39.2683
27.4032, 23.970, 1507.0, 38.8201
27.4358, 23.970, 1560.0, 39.4968
27.4684, 23.970, 1514.0, 38.9102
27.501, 23.970, 1411.0, 37.5633
27.5336, 23.970, 1517.0, 38.9487
27.5662, 23.970, 1529.0, 39.1024
27.5988, 23.970, 1523.0, 39.0256
27.6314, 23.970, 1459.0, 38.1969
27.664, 23.970, 1469.0, 38.3275
27.6966, 23.970, 1486.0, 38.5487
27.7292, 23.970, 1445.0, 38.0132
27.7618, 23.970, 1458.0, 38.1838
27.7944, 23.970, 1416.0, 37.6298
27.827, 23.970, 1452.0, 38.1051
27.8596, 23.970, 1405.0, 37.4833
27.8922, 23.970, 1453.0, 38.1182
27.9248, 23.970, 1475.0, 38.4057
27.9574, 23.970, 1415.0, 37.6165
27.99, 23.970, 1420.0, 37.6829
28.0226, 23.970, 1480.0, 38.4708
28.0552, 23.970, 1426.0, 37.7624
28.0878, 23.970, 1413.0, 37.5899
28.1204, 23.970, 1409.0, 37.5366
28.153, 23.970, 1464.0, 38.2623
28.1855, 23.970, 1406.0, 37.4967
28.2181, 23.970, 1395.0, 37.3497
28.2507, 23.970, 1371.0, 37.0270
28.2833, 23.970, 1320.0, 36.3318
28.3159, 23.970, 1422.0, 37.7094
28.3485, 23.970, 1394.0, 37.3363
28.3811, 23.970, 1424.0, 37.7359
28.4137, 23.970, 1427.0, 37.7757
28.4463, 23.970, 1431.0, 37.8286
28.4789, 23.970, 1392.0, 37.3095
28.5115, 23.970, 1397.0, 37.3765
28.5441, 23.970, 1349.0, 36.7287
28.5767, 23.970, 1438.0, 37.9210
28.6093, 23.970, 1382.0, 37.1753
28.6419, 23.970, 1375.0, 37.0810
28.6745, 23.970, 1402.0, 37.4433
28.7071, 23.970, 1430.0, 37.8153
28.7397, 23.970, 1554.0, 39.4208
28.7723, 23.970, 1627.0, 40.3361
28.8049, 23.970, 1721.0, 41.4849
28.8375, 23.970, 1645.0, 40.5586
28.8701, 23.970, 1613.0, 40.1622
28.9027, 23.970, 1464.0, 38.2623
28.9353, 23.970, 1368.0, 36.9865
28.9679, 23.970, 1321.0, 36.3456
29.0005, 23.970, 1390.0, 37.2827
29.0331, 23.970, 1332.0, 36.4966
29.0657, 23.970, 1323.0, 36.3731
29.0983, 23.970, 1348.0, 36.7151
29.1309, 23.970, 1368.0, 36.9865
29.1635, 23.970, 1267.0, 35.5949
29.1961, 23.970, 1357.0, 36.8375
29.2287, 23.970, 1343.0, 36.6470
29.2613, 23.970, 1361.0, 36.8917
29.2939, 23.970, 1355.0, 36.8103
29.3265, 23.970, 1354.0, 36.7967
29.3591, 23.970, 1380.0, 37.1484
29.3917, 23.970, 1385.0, 37.2156
29.4243, 23.970, 1421.0, 37.6962
29.4569, 23.970, 1405.0, 37.4833
29.4895, 23.970, 1472.0, 38.3667
29.5221, 23.970, 1460.0, 38.2099
29.5547, 23.970, 1513.0, 38.8973
29.5873, 23.970, 1600.0, 40.0000
29.6199, 23.970, 1545.0, 39.3065
29.6525, 23.970, 1654.0, 40.6694
29.6851, 23.970, 1611.0, 40.1373
29.7177, 23.970, 1625.0, 40.3113
29.7503, 23.970, 1746.0, 41.7852
29.7829, 23.970, 1719.0, 41.4608
29.8155, 23.970, 1781.0, 42.2019
29.8481, 23.970, 1816.0, 42.6146
29.8807, 23.970, 1853.0, 43.0465
29.9133, 23.970, 1924.0, 43.8634
29.9459, 23.970, 2139.0, 46.2493
29.9785, 23.970, 2063.0, 45.4203
30.0111, 23.970, 2148.0, 46.3465
30.0437, 23.970, 2257.0, 47.5079
30.0763, 23.970, 2243.0, 47.3603
30.1089, 23.970, 2255.0, 47.4868
30.1415, 23.970, 2286.0, 47.8121
30.1741, 23.970, 2274.0, 47.6865
30.2067, 23.970, 2131.0, 46.1628
30.2393, 23.970, 2019.0, 44.9333
30.2719, 23.970, 1885.0, 43.4166
30.3045, 23.970, 1833.0, 42.8135
30.3371, 23.970, 1657.0, 40.7063
30.3697, 23.970, 1480.0, 38.4708
30.4023, 23.970, 1492.0, 38.6264
30.4349, 23.970, 1411.0, 37.5633
30.4675, 23.970, 1275.0, 35.7071
30.5001, 23.970, 1318.0, 36.3043
30.5327, 23.970, 1259.0, 35.4824
30.5653, 23.970, 1274.0, 35.6931
30.5979, 23.970, 1291.0, 35.9305
30.6305, 23.970, 1158.0, 34.0294
30.6631, 23.970, 1161.0, 34.0735
30.6957, 23.970, 1217.0, 34.8855
30.7283, 23.970, 1168.0, 34.1760
30.7609, 23.970, 1245.0, 35.2846
30.7935, 23.970, 1184.0, 34.4093
30.8261, 23.970, 1252.0, 35.3836
30.8587, 23.970, 1184.0, 34.4093
30.8913, 23.970, 1167.0, 34.1614
30.9239, 23.970, 1126.0, 33.5559
30.9565, 23.970, 1194.0, 34.5543
30.9891, 23.970, 1087.0, 32.9697
31.0217, 23.970, 1130.0, 33.6155
31.0543, 23.970, 1146.0, 33.8526
31.0869, 23.970, 1114.0, 33.3766
31.1195, 23.970, 1103.0, 33.2114
31.1521, 23.970, 1089.0, 33.0000
31.1847, 23.970, 1123.0, 33.5112
31.2173, 23.970, 1139.0, 33.7491
31.2499, 23.970, 1161.0, 34.0735
31.2825, 23.970, 1074.0, 32.7719
31.3151, 23.970, 1107.0, 33.2716
31.3477, 23.970, 1093.0, 33.0606
31.3803, 23.970, 1124.0, 33.5261
31.4129, 23.970, 1104.0, 33.2265
31.4455, 23.970, 1170.0, 34.2053
31.4781, 23.970, 1122.0, 33.4963
31.5107, 23.970, 1102.0, 33.1964
31.5433, 23.970, 1155.0, 33.9853
31.5759, 23.970, 1092.0, 33.0454
31.6085, 23.970, 1104.0, 33.2265
31.6411, 23.970, 1117.0, 33.4215
31.6737, 23.970, 1171.0, 34.2199
31.7063, 23.970, 1117.0, 33.4215
31.7389, 23.970, 1109.0, 33.3017
31.7715, 23.970, 1132.0, 33.6452
31.8041, 23.970, 1164.0, 34.1174
31.8367, 23.970, 1110.0, 33.3167
31.8693, 23.970, 1075.0, 32.7872
31.9019, 23.970, 1110.0, 33.3167
31.9345, 23.970, 1120.0, 33.4664
31.9671, 23.970, 1100.0, 33.1662
31.9997, 23.970, 1149.0, 33.8969
32.0323, 23.970, 1077.0, 32.8177
32.0649, 23.970, 1043.0, 32.2955
32.0975, 23.970, 1082.0, 32.8938
32.1301, 23.970, 1136.0, 33.7046
32.1627, 23.970, 1097.0, 33.1210
32.1953, 23.970, 1081.0, 32.8786
32.2279, 23.970, 1074.0, 32.7719
32.2605, 23.970, 1054.0, 32.4654
32.2931, 23.970, 1129.0, 33.6006
32.3257, 23.970, 1053.0, 32.4500
32.3583, 23.970, 1099.0, 33.1512
32.3909, 23.970, 1097.0, 33.1210
32.4235, 23.970, 1058.0, 32.5269
32.4561, 23.970, 1064.0, 32.6190
32.4887, 23.970, 1083.0, 32.9090
32.5213, 23.970, 1101.0, 33.1813
32.5539, 23.970, 1084.0, 32.9242
32.5865, 23.970, 1079.0, 32.8481
32.6191, 23.970, 1062.0, 32.5883
32.6517, 23.970, 1150.0, 33.9116
32.6843, 23.970, 1051.0, 32.4191
32.7169, 23.970, 1091.0, 33.0303
32.7495, 23.970, 1087.0, 32.9697
32.7821, 23.970, 1029.0, 32.0780
32.8147, 23.970, 1088.0, 32.9848
32.8473, 23.970, 1071.0, 32.7261
32.8799, 23.970, 1062.0, 32.5883
32.9125, 23.970, 1039.0, 32.2335
32.9451, 23.970, 1079.0, 32.8481
32.9776, 23.970, 1011.0, 31.7962
33.0102, 23.970, 1076.0, 32.8024
33.0428, 23.970, 977.0, 31.2570
33.0754, 23.970, 1110.0, 33.3167
33.108, 23.970, 1005.0, 31.7017
33.1406, 23.970, 1107.0, 33.2716
33.1732, 23.970, 1079.0, 32.8481
33.2058, 23.970, 1082.0, 32.8938
33.2384, 23.970, 1078.0, 32.8329
33.271, 23.970, 1052.0, 32.4345
33.3036, 23.970, 1055.0, 32.4808
33.3362, 23.970, 1042.0, 32.2800
33.3688, 23.970, 1042.0, 32.2800
33.4014, 23.970, 1057.0, 32.5115
33.434, 23.970, 1157.0, 34.0147
33.4666, 23.970, 1054.0, 32.4654
33.4992, 23.970, 1112.0, 33.3467
33.5318, 23.970, 1077.0, 32.8177
33.5644, 23.970, 1030.0, 32.0936
33.597, 23.970, 1040.0, 32.2490
33.6296, 23.970, 1082.0, 32.8938
33.6622, 23.970, 1057.0, 32.5115
33.6948, 23.970, 1040.0, 32.2490
33.7274, 23.970, 1049.0, 32.3883
33.76, 23.970, 1014.0, 31.8434
33.7926, 23.970, 1013.0, 31.8277
33.8252, 23.970, 1037.0, 32.2025
33.8578, 23.970, 1078.0, 32.8329
33.8904, 23.970, 1054.0, 32.4654
33.923, 23.970, 1079.0, 32.8481
33.9556, 23.970, 1010.0, 31.7805
33.9882, 23.970, 1027.0, 32.0468
34.0208, 23.970, 1093.0, 33.0606
34.0534, 23.970, 1023.0, 31.9844
34.086, 23.970, 1016.0, 31.8748
34.1186, 23.970, 1019.0, 31.9218
34.1512, 23.970, 1060.0, 32.5576
34.1838, 23.970, 1140.0, 33.7639
34.2164, 23.970, 1018.0, 31.9061
34.249, 23.970, 1084.0, 32.9242
34.2816, 23.970, 1056.0, 32.4962
34.3142, 23.970, 1027.0, 32.0468
34.3468, 23.970, 1075.0, 32.7872
34.3794, 23.970, 1132.0, 33.6452
34.412, 23.970, 1084.0, 32.9242
34.4446, 23.970, 1071.0, 32.7261
34.4772, 23.970, 1114.0, 33.3766
34.5098, 23.970, 1062.0, 32.5883
34.5424, 23.970, 1095.0, 33.0908
34.575, 23.970, 1030.0, 32.0936
34.6076, 23.970, 1114.0, 33.3766
34.6402, 23.970, 1054.0, 32.4654
34.6728, 23.970, 1132.0, 33.6452
34.7054, 23.970, 1077.0, 32.8177
34.738, 23.970, 1072.0, 32.7414
34.7706, 23.970, 1066.0, 32.6497
34.8032, 23.970, 1134.0, 33.6749
34.8358, 23.970, 1143.0, 33.8083
34.8684, 23.970, 1096.0, 33.1059
34.901, 23.970, 1098.0, 33.1361
34.9336, 23.970, 1156.0, 34.0000
34.9662, 23.970, 1155.0, 33.9853
34.9988, 23.970, 1153.0, 33.9559
35.0314, 23.970, 1127.0, 33.5708
35.064, 23.970, 1106.0, 33.2566
35.0966, 23.970, 1209.0, 34.7707
35.1292, 23.970, 1182.0, 34.3802
35.1618, 23.970, 1210.0, 34.7851
35.1944, 23.970, 1168.0, 34.1760
35.227, 23.970, 1191.0, 34.5109
35.2596, 23.970, 1227.0, 35.0286
35.2922, 23.970, 1262.0, 35.5246
35.3248, 23.970, 1339.0, 36.5923
35.3574, 23.970, 1282.0, 35.8050
35.39, 23.970, 1315.0, 36.2629
35.4226, 23.970, 1399.0, 37.4032
35.4552, 23.970, 1435.0, 37.8814
35.4878, 23.970, 1433.0, 37.8550
35.5204, 23.970, 1422.0, 37.7094
35.553, 23.970, 1473.0, 38.3797
35.5856, 23.970, 1522.0, 39.0128
35.6182, 23.970, 1581.0, 39.7618
35.6508, 23.970, 1704.0, 41.2795
35.6834, 23.970, 1866.0, 43.1972
35.716, 23.970, 1934.0, 43.9773
35.7486, 23.970, 2020.0, 44.9444
35.7812, 23.970, 2305.0, 48.0104
35.8138, 23.970, 2341.0, 48.3839
35.8464, 23.970, 2534.0, 50.3389
35.879, 23.970, 2556.0, 50.5569
35.9116, 23.970, 2833.0, 53.2259
35.9442, 23.970, 2997.0, 54.7449
35.9768, 23.970, 2995.0, 54.7266
36.0094, 23.970, 3204.0, 56.6039
36.042, 23.970, 3486.0, 59.0424
36.0746, 23.970, 3549.0, 59.5735
36.1072, 23.970, 3609.0, 60.0750
36.1398, 23.970, 3851.0, 62.0564
36.1724, 23.970, 3840.0, 61.9677
36.205, 23.970, 3963.0, 62.9524
36.2376, 23.970, 3993.0, 63.1902
36.2702, 23.970, 4005.0, 63.2851
36.3028, 23.970, 3963.0, 62.9524
36.3354, 23.970, 3740.0, 61.1555
36.368, 23.970, 3539.0, 59.4895
36.4006, 23.970, 3378.0, 58.1206
36.4332, 23.970, 3086.0, 55.5518
36.4658, 23.970, 2828.0, 53.1789
36.4984, 23.970, 2619.0, 51.1762
36.531, 23.970, 2179.0, 46.6798
36.5636, 23.970, 2095.0, 45.7712
36.5962, 23.970, 1873.0, 43.2782
36.6288, 23.970, 1765.0, 42.0119
36.6614, 23.970, 1682.0, 41.0122
36.694, 23.970, 1583.0, 39.7869
36.7266, 23.970, 1458.0, 38.1838
36.7592, 23.970, 1418.0, 37.6563
36.7918, 23.970, 1358.0, 36.8511
36.8244, 23.970, 1338.0, 36.5787
36.857, 23.970, 1312.0, 36.2215
36.8896, 23.970, 1351.0, 36.7560
36.9222, 23.970, 1268.0, 35.6090
36.9548, 23.970, 1263.0, 35.5387
36.9874, 23.970, 1215.0, 34.8569
37.02, 23.970, 1253.0, 35.3977
37.0526, 23.970, 1248.0, 35.3270
37.0852, 23.970, 1211.0, 34.7994
37.1178, 23.970, 1212.0, 34.8138
37.1504, 23.970, 1168.0, 34.1760
37.183, 23.970, 1241.0, 35.2278
37.2156, 23.970, 1127.0, 33.5708
37.2482, 23.970, 1232.0, 35.0999
37.2808, 23.970, 1215.0, 34.8569
37.3134, 23.970, 1221.0, 34.9428
37.346, 23.970, 1236.0, 35.1568
37.3786, 23.970, 1223.0, 34.9714
37.4112, 23.970, 1229.0, 35.0571
37.4438, 23.970, 1156.0, 34.0000
37.4764, 23.970, 1206.0, 34.7275
37.509, 23.970, 1231.0, 35.0856
37.5416, 23.970, 1250.0, 35.3553
37.5742, 23.970, 1292.0, 35.9444
37.6068, 23.970, 1241.0, 35.2278
37.6394, 23.970, 1242.0, 35.2420
37.672, 23.970, 1239.0, 35.1994
37.7046, 23.970, 1247.0, 35.3129
37.7372, 23.970, 1236.0, 35.1568
37.7697, 23.970, 1295.0, 35.9861
37.8023, 23.970, 1326.0, 36.4143
37.8349, 23.970, 1367.0, 36.9730
37.8675, 23.970, 1349.0, 36.7287
37.9001, 23.970, 1400.0, 37.4166
37.9327, 23.970, 1391.0, 37.2961
37.9653, 23.970, 1326.0, 36.4143
37.9979, 23.970, 1384.0, 37.2022
38.0305, 23.970, 1396.0, 37.3631
38.0631, 23.970, 1366.0, 36.9594
38.0957, 23.970, 1465.0, 38.2753
38.1283, 23.970, 1454.0, 38.1314
38.1609, 23.970, 1481.0, 38.4838
38.1935, 23.970, 1509.0, 38.8458
38.2261, 23.970, 1574.0, 39.6737
38.2587, 23.970, 1521.0, 39.0000
38.2913, 23.970, 1461.0, 38.2230
38.3239, 23.970, 1602.0, 40.0250
38.3565, 23.970, 1596.0, 39.9500
38.3891, 23.970, 1464.0, 38.2623
38.4217, 23.970, 1431.0, 37.8286
38.4543, 23.970, 1525.0, 39.0512
38.4869, 23.970, 1387.0, 37.2424
38.5195, 23.970, 1451.0, 38.0920
38.5521, 23.970, 1399.0, 37.4032
38.5847, 23.970, 1385.0, 37.2156
38.6173, 23.970, 1292.0, 35.9444
38.6499, 23.970, 1280.0, 35.7771
38.6825, 23.970, 1327.0, 36.4280
38.7151, 23.970, 1300.0, 36.0555
38.7477, 23.970, 1418.0, 37.6563
38.7803, 23.970, 1459.0, 38.1969
38.8129, 23.970, 1464.0, 38.2623
38.8455, 23.970, 1535.0, 39.1791
38.8781, 23.970, 1471.0, 38.3536
38.9107, 23.970, 1532.0, 39.1408
38.9433, 23.970, 1423.0, 37.7227
38.9759, 23.970, 1397.0, 37.3765
39.0085, 23.970, 1431.0, 37.8286
39.0411, 23.970, 1443.0, 37.9868
39.0737, 23.970, 1487.0, 38.5616
39.1063, 23.970, 1404.0, 37.4700
39.1389, 23.970, 1499.0, 38.7169
39.1715, 23.970, 1496.0, 38.6782
39.2041, 23.970, 1544.0, 39.2938
39.2367, 23.970, 1704.0, 41.2795
39.2693, 23.970, 1720.0, 41.4729
39.3019, 23.970, 1785.0, 42.2493
39.3345, 23.970, 1857.0, 43.0929
39.3671, 23.970, 1901.0, 43.6005
39.3997, 23.970, 2068.0, 45.4753
39.4323, 23.970, 2049.0, 45.2659
39.4649, 23.970, 2067.0, 45.4643
39.4975, 23.970, 2269.0, 47.6340
39.5301, 23.970, 2233.0, 47.2546
39.5627, 23.970, 2407.0, 49.0612
39.5953, 23.970, 2345.0, 48.4252
39.6279, 23.970, 2438.0, 49.3761
39.6605, 23.970, 2434.0, 49.3356
39.6931, 23.970, 2545.0, 50.4480
39.7257, 23.970, 2521.0, 50.2096
39.7583, 23.970, 2517.0, 50.1697
39.7909, 23.970, 2435.0, 49.3457
39.8235, 23.970, 2382.0, 48.8057
39.8561, 23.970, 2289.0, 47.8435
39.8887, 23.970, 2246.0, 47.3920
39.9213, 23.970, 2171.0, 46.5940
39.9539, 23.970, 2157.0, 46.4435
39.9865, 23.970, 2070.0, 45.4973
40.0191, 23.970, 2046.0, 45.2327
40.0517, 23.970, 2026.0, 45.0111
40.0843, 23.970, 1894.0, 43.5201
40.1169, 23.970, 1813.0, 42.5793
40.1495, 23.970, 1827.0, 42.7434
40.1821, 23.970, 1847.0, 42.9767
40.2147, 23.970, 1849.0, 43.0000
40.2473, 23.970, 1811.0, 42.5558
40.2799, 23.970, 1803.0, 42.4617
40.3125, 23.970, 1900.0, 43.5890
40.3451, 23.970, 1864.0, 43.1741
40.3777, 23.970, 1949.0, 44.1475
40.4103, 23.970, 1852.0, 43.0349
40.4429, 23.970, 1967.0, 44.3509
40.4755, 23.970, 2048.0, 45.2548
40.5081, 23.970, 2136.0, 46.2169
40.5407, 23.970, 2112.0, 45.9565
40.5733, 23.970, 2228.0, 47.2017
40.6059, 23.970, 2262.0, 47.5605
40.6385, 23.970, 2412.0, 49.1121
40.6711, 23.970, 2375.0, 48.7340
40.7037, 23.970, 2440.0, 49.3964
40.7363, 23.970, 2564.0, 50.6360
40.7689, 23.970, 2620.0, 51.1859
40.8015, 23.970, 2557.0, 50.5668
40.8341, 23.970, 2552.0, 50.5173
40.8667, 23.970, 2407.0, 49.0612
40.8993, 23.970, 2333.0, 48.3011
40.9319, 23.970, 2312.0, 48.0833
40.9645, 23.970, 2188.0, 46.7761
40.9971, 23.970, 2163.0, 46.5081
41.0297, 23.970, 2004.0, 44.7661
41.0623, 23.970, 1944.0, 44.0908
41.0949, 23.970, 1920.0, 43.8178
41.1275, 23.970, 1828.0, 42.7551
41.1601, 23.970, 1753.0, 41.8688
41.1927, 23.970, 1819.0, 42.6497
41.2253, 23.970, 1812.0, 42.5676
41.2579, 23.970, 1852.0, 43.0349
41.2905, 23.970, 1909.0, 43.6921
41.3231, 23.970, 1866.0, 43.1972
41.3557, 23.970, 1938.0, 44.0227
41.3883, 23.970, 1994.0, 44.6542
41.4209, 23.970, 1911.0, 43.7150
41.4535, 23.970, 2088.0, 45.6946
41.4861, 23.970, 2035.0, 45.1110
41.5187, 23.970, 2051.0, 45.2880
41.5513, 23.970, 2053.0, 45.3100
41.5839, 23.970, 2075.0, 45.5522
41.6165, 23.970, 2082.0, 45.6289
41.6491, 23.970, 2052.0, 45.2990
41.6817, 23.970, 2043.0, 45.1996
41.7143, 23.970, 2009.0, 44.8219
41.7469, 23.970, 2002.0, 44.7437
41.7795, 23.970, 1916.0, 43.7721
41.8121, 23.970, 1843.0, 42.9302
41.8447, 23.970, 1816.0, 42.6146
41.8773, 23.970, 1795.0, 42.3674
41.9099, 23.970, 1693.0, 41.1461
41.9425, 23.970, 1609.0, 40.1123
41.9751, 23.970, 1525.0, 39.0512
42.0077, 23.970, 1456.0, 38.1576
42.0403, 23.970, 1542.0, 39.2683
42.0729, 23.970, 1523.0, 39.0256
42.1055, 23.970, 1413.0, 37.5899
42.1381, 23.970, 1504.0, 38.7814
42.1707, 23.970, 1431.0, 37.8286
42.2033, 23.970, 1450.0, 38.0789
42.2359, 23.970, 1454.0, 38.1314
42.2685, 23.970, 1412.0, 37.5766
42.3011, 23.970, 1488.0, 38.5746
42.3337, 23.970, 1461.0, 38.2230
42.3663, 23.970, 1561.0, 39.5095
42.3989, 23.970, 1580.0, 39.7492
42.4315, 23.970, 1627.0, 40.3361
42.4641, 23.970, 1707.0, 41.3159
42.4967, 23.970, 1826.0, 42.7317
42.5293, 23.970, 1766.0, 42.0238
42.5618, 23.970, 1963.0, 44.3058
42.5944, 23.970, 1921.0, 43.8292
42.627, 23.970, 1959.0, 44.2606
42.6596, 23.970, 1899.0, 43.5775
42.6922, 23.970, 1995.0, 44.6654
42.7248, 23.970, 2070.0, 45.4973
42.7574, 23.970, 2062.0, 45.4093
42.79, 23.970, 1980.0, 44.4972
42.8226, 23.970, 2035.0, 45.1110
42.8552, 23.970, 2131.0, 46.1628
42.8878, 23.970, 2124.0, 46.0869
42.9204, 23.970, 2160.0, 46.4758
42.953, 23.970, 2246.0, 47.3920
42.9856, 23.970, 2139.0, 46.2493
43.0182, 23.970, 2154.0, 46.4112
43.0508, 23.970, 1993.0, 44.6430
43.0834, 23.970, 2052.0, 45.2990
43.116, 23.970, 1964.0, 44.3170
43.1486, 23.970, 1917.0, 43.7836
43.1812, 23.970, 1830.0, 42.7785
43.2138, 23.970, 1788.0, 42.2847
43.2464, 23.970, 1676.0, 40.9390
43.279, 23.970, 1712.0, 41.3763
43.3116, 23.970, 1537.0, 39.2046
43.3442, 23.970, 1635.0, 40.4351
43.3768, 23.970, 1568.0, 39.5980
43.4094, 23.970, 1556.0, 39.4462
43.442, 23.970, 1595.0, 39.9375
43.4746, 23.970, 1565.0, 39.5601
43.5072, 23.970, 1585.0, 39.8121
43.5398, 23.970, 1563.0, 39.5348
43.5724, 23.970, 1601.0, 40.0125
43.605, 23.970, 1692.0, 41.1339
43.6376, 23.970, 1730.0, 41.5933
43.6702, 23.970, 1668.0, 40.8412
43.7028, 23.970, 1670.0, 40.8656
43.7354, 23.970, 1702.0, 41.2553
43.768, 23.970, 1750.0, 41.8330
43.8006, 23.970, 1703.0, 41.2674
43.8332, 23.970, 1714.0, 41.4005
43.8658, 23.970, 1874.0, 43.2897
43.8984, 23.970, 1858.0, 43.1045
43.931, 23.970, 1920.0, 43.8178
43.9636, 23.970, 1911.0, 43.7150
43.9962, 23.970, 1894.0, 43.5201
44.0288, 23.970, 1857.0, 43.0929
44.0614, 23.970, 1829.0, 42.7668
44.094, 23.970, 1809.0, 42.5323
44.1266, 23.970, 1665.0, 40.8044
44.1592, 23.970, 1560.0, 39.4968
44.1918, 23.970, 1589.0, 39.8623
44.2244, 23.970, 1419.0, 37.6696
44.257, 23.970, 1361.0, 36.8917
44.2896, 23.970, 1309.0, 36.1801
44.3222, 23.970, 1233.0, 35.1141
44.3548, 23.970, 1324.0, 36.3868
44.3874, 23.970, 1219.0, 34.9142
44.42, 23.970, 1228.0, 35.0428
44.4526, 23.970, 1301.0, 36.0694
44.4852, 23.970, 1153.0, 33.9559
44.5178, 23.970, 1162.0, 34.0881
44.5504, 23.970, 1151.0, 33.9264
44.583, 23.970, 1145.0, 33.8378
44.6156, 23.970, 1134.0, 33.6749
44.6482, 23.970, 1129.0, 33.6006
44.6808, 23.970, 1158.0, 34.0294
44.7134, 23.970, 1115.0, 33.3916
44.746, 23.970, 1125.0, 33.5410
44.7786, 23.970, 1046.0, 32.3419
44.8112, 23.970, 1119.0, 33.4515
44.8438, 23.970, 1131.0, 33.6303
44.8764, 23.970, 1053.0, 32.4500
44.909, 23.970, 1053.0, 32.4500
44.9416, 23.970, 1056.0, 32.4962
44.9742, 23.970, 1106.0, 33.2566
45.0068, 23.970, 1012.0, 31.8119
45.0394, 23.970, 1143.0, 33.8083
45.072, 23.970, 1133.0, 33.6601
45.1046, 23.970, 1011.0, 31.7962
45.1372, 23.970, 1103.0, 33.2114
45.1698, 23.970, 1049.0, 32.3883
45.2024, 23.970, 1016.0, 31.8748
45.235, 23.970, 1017.0, 31.8904
45.2676, 23.970, 1021.0, 31.9531
45.3002, 23.970, 1029.0, 32.0780
45.3328, 23.970, 1087.0, 32.9697
45.3654, 23.970, 1084.0, 32.9242
45.398, 23.970, 1017.0, 31.8904
45.4306, 23.970, 1077.0, 32.8177
45.4632, 23.970, 1033.0, 32.1403
45.4958, 23.970, 1011.0, 31.7962
45.5284, 23.970, 1093.0, 33.0606
45.561, 23.970, 1084.0, 32.9242
45.5936, 23.970, 1041.0, 32.2645
45.6262, 23.970, 983.0, 31.3528
45.6588, 23.970, 1126.0, 33.5559
45.6914, 23.970, 1049.0, 32.3883
45.724, 23.970, 987.0, 31.4166
45.7566, 23.970, 1051.0, 32.4191
45.7892, 23.970, 1081.0, 32.8786
45.8218, 23.970, 1024.0, 32.0000
45.8544, 23.970, 1017.0, 31.8904
45.887, 23.970, 1066.0, 32.6497
45.9196, 23.970, 1040.0, 32.2490
45.9522, 23.970, 1049.0, 32.3883
45.9848, 23.970, 1006.0, 31.7175
46.0174, 23.970, 1063.0, 32.6037
46.05, 23.970, 1085.0, 32.9393
46.0826, 23.970, 1066.0, 32.6497
46.1152, 23.970, 1067.0, 32.6650
46.1478, 23.970, 1064.0, 32.6190
46.1804, 23.970, 1098.0, 33.1361
46.213, 23.970, 1081.0, 32.8786
46.2456, 23.970, 1157.0, 34.0147
46.2782, 23.970, 1177.0, 34.3074
46.3108, 23.970, 1091.0, 33.0303
46.3434, 23.970, 1148.0, 33.8821
46.376, 23.970, 1192.0, 34.5254
46.4086, 23.970, 1201.0, 34.6554
46.4412, 23.970, 1332.0, 36.4966
46.4738, 23.970, 1334.0, 36.5240
46.5064, 23.970, 1350.0, 36.7423
46.539, 23.970, 1423.0, 37.7227
46.5716, 23.970, 1522.0, 39.0128
46.6042, 23.970, 1496.0, 38.6782
46.6368, 23.970, 1480.0, 38.4708
46.6694, 23.970, 1551.0, 39.3827
46.702, 23.970, 1529.0, 39.1024
46.7346, 23.970, 1531.0, 39.1280
46.7672, 23.970, 1506.0, 38.8072
46.7998, 23.970, 1700.0, 41.2311
46.8324, 23.970, 1630.0, 40.3733
46.865, 23.970, 1753.0, 41.8688
46.8976, 23.970, 1854.0, 43.0581
46.9302, 23.970, 1883.0, 43.3935
46.9628, 23.970, 1860.0, 43.1277
46.9954, 23.970, 1859.0, 43.1161
47.028, 23.970, 1740.0, 41.7133
47.0606, 23.970, 1675.0, 40.9268
47.0932, 23.970, 1572.0, 39.6485
47.1258, 23.970, 1512.0, 38.8844
47.1584, 23.970, 1365.0, 36.9459
47.191, 23.970, 1387.0, 37.2424
47.2236, 23.970, 1290.0, 35.9166
47.2562, 23.970, 1086.0, 32.9545
47.2888, 23.970, 1219.0, 34.9142
47.3214, 23.970, 1116.0, 33.4066
47.3539, 23.970, 1134.0, 33.6749
47.3865, 23.970, 1094.0, 33.0757
47.4191, 23.970, 1064.0, 32.6190
47.4517, 23.970, 1061.0, 32.5730
47.4843, 23.970, 1032.0, 32.1248
47.5169, 23.970, 1055.0, 32.4808
47.5495, 23.970, 1057.0, 32.5115
47.5821, 23.970, 986.0, 31.4006
47.6147, 23.970, 1035.0, 32.1714
47.6473, 23.970, 1020.0, 31.9374
47.6799, 23.970, 1009.0, 31.7648
47.7125, 23.970, 1046.0, 32.3419
47.7451, 23.970, 1041.0, 32.2645
47.7777, 23.970, 1015.0, 31.8591
47.8103, 23.970, 1065.0, 32.6343
47.8429, 23.970, 1147.0, 33.8674
47.8755, 23.970, 1167.0, 34.1614
47.9081, 23.970, 1252.0, 35.3836
47.9407, 23.970, 1318.0, 36.3043
47.9733, 23.970, 1276.0, 35.7211
48.0059, 23.970, 1241.0, 35.2278
48.0385, 23.970, 1225.0, 35.0000
48.0711, 23.970, 1113.0, 33.3617
48.1037, 23.970, 1174.0, 34.2637
48.1363, 23.970, 1088.0, 32.9848
48.1689, 23.970, 1035.0, 32.1714
48.2015, 23.970, 1021.0, 31.9531
48.2341, 23.970, 970.0, 31.1448
48.2667, 23.970, 1034.0, 32.1559
48.2993, 23.970, 1000.0, 31.6228
48.3319, 23.970, 997.0, 31.5753
48.3645, 23.970, 988.0, 31.4325
48.3971, 23.970, 980.0, 31.3050
48.4297, 23.970, 978.0, 31.2730
48.4623, 23.970, 1012.0, 31.8119
48.4949, 23.970, 1039.0, 32.2335
48.5275, 23.970, 1011.0, 31.7962
48.5601, 23.970, 1074.0, 32.7719
48.5927, 23.970, 1003.0, 31.6702
48.6253, 23.970, 1012.0, 31.8119
48.6579, 23.970, 1063.0, 32.6037
48.6905, 23.970, 1069.0, 32.6956
48.7231, 23.970, 993.0, 31.5119
48.7557, 23.970, 1019.0, 31.9218
48.7883, 23.970, 1057.0, 32.5115
48.8209, 23.970, 1049.0, 32.3883
48.8535, 23.970, 1096.0, 33.1059
48.8861, 23.970, 1085.0, 32.9393
48.9187, 23.970, 1066.0, 32.6497
48.9513, 23.970, 1056.0, 32.4962
48.9839, 23.970, 1102.0, 33.1964
49.0165, 23.970, 1093.0, 33.0606
49.0491, 23.970, 1065.0, 32.6343
49.0817, 23.970, 1120.0, 33.4664
49.1143, 23.970, 1093.0, 33.0606
49.1469, 23.970, 1076.0, 32.8024
49.1795, 23.970, 1105.0, 33.2415
49.2121, 23.970, 1086.0, 32.9545
49.2447, 23.970, 1109.0, 33.3017
49.2773, 23.970, 992.0, 31.4960
49.3099, 23.970, 1028.0, 32.0624
49.3425, 23.970, 1020.0, 31.9374
49.3751, 23.970, 989.0, 31.4484
49.4077, 23.970, 962.0, 31.0161
49.4403, 23.970, 925.0, 30.4138
49.4729, 23.970, 941.0, 30.6757
49.5055, 23.970, 878.0, 29.6311
49.5381, 23.970, 1004.0, 31.6860
49.5707, 23.970, 919.0, 30.3150
49.6033, 23.970, 938.0, 30.6268
49.6359, 23.970, 963.0, 31.0322
49.6685, 23.970, 900.0, 30.0000
49.7011, 23.970, 936.0, 30.5941
49.7337, 23.970, 906.0, 30.0998
49.7663, 23.970, 922.0, 30.3645
49.7989, 23.970, 884.0, 29.7321
49.8315, 23.970, 919.0, 30.3150
49.8641, 23.970, 926.0, 30.4302
49.8967, 23.970, 934.0, 30.5614
49.9293, 23.970, 818.0, 28.6007
49.9619, 23.970, 893.0, 29.8831
49.9945, 23.970, 886.0, 29.7658