File: data/DSC/HDPE.csv
[Measurement conditions]
Sample identification,HDPE
Comment,
Anode material,Cu
K-Alpha1 wavelength,1.5406
K-Alpha2 wavelength,1.54443
Ratio K-Alpha2/K-Alpha1,0.500
Divergence slit,Fixed,0.38mm
Monochromator used,NO
Generator voltage, 40
Tube current, 15
File date and time,26/Feb/2025 10:57
Unit cell,
h k l, 0 0 0
Scan axis,Gonio
Scan range,5.002,49.9999
Scan step size,0.0108664
No. of points, 4141
Scan type,CONTINUOUS
Time per step,23.970
[Scan points]
Angle, TimePerStep, Intensity, ESD
5.00743, 23.970, 1413.0, 37.5899
5.04003, 23.970, 1532.0, 39.1408
5.07263, 23.970, 1484.0, 38.5227
5.10523, 23.970, 1506.0, 38.8072
5.13783, 23.970, 1565.0, 39.5601
5.17043, 23.970, 1555.0, 39.4335
5.20303, 23.970, 1598.0, 39.9750
5.23563, 23.970, 1579.0, 39.7366
5.26823, 23.970, 1571.0, 39.6358
5.30083, 23.970, 1643.0, 40.5339
5.33343, 23.970, 1629.0, 40.3609
5.36603, 23.970, 1698.0, 41.2068
5.39863, 23.970, 1614.0, 40.1746
5.43122, 23.970, 1651.0, 40.6325
5.46382, 23.970, 1723.0, 41.5090
5.49642, 23.970, 1745.0, 41.7732
5.52902, 23.970, 1772.0, 42.0951
5.56162, 23.970, 1728.0, 41.5692
5.59422, 23.970, 1777.0, 42.1545
5.62682, 23.970, 1763.0, 41.9881
5.65942, 23.970, 1750.0, 41.8330
5.69202, 23.970, 1864.0, 43.1741
5.72462, 23.970, 1874.0, 43.2897
5.75722, 23.970, 1873.0, 43.2782
5.78982, 23.970, 1890.0, 43.4741
5.82242, 23.970, 1850.0, 43.0116
5.85502, 23.970, 1853.0, 43.0465
5.88761, 23.970, 1897.0, 43.5546
5.92021, 23.970, 1891.0, 43.4856
5.95281, 23.970, 1901.0, 43.6005
5.98541, 23.970, 1892.0, 43.4971
6.01801, 23.970, 1944.0, 44.0908
6.05061, 23.970, 1856.0, 43.0813
6.08321, 23.970, 1973.0, 44.4185
6.11581, 23.970, 1972.0, 44.4072
6.14841, 23.970, 1939.0, 44.0341
6.18101, 23.970, 1955.0, 44.2154
6.21361, 23.970, 2004.0, 44.7661
6.24621, 23.970, 2089.0, 45.7056
6.27881, 23.970, 1946.0, 44.1135
6.31141, 23.970, 2046.0, 45.2327
6.34401, 23.970, 2029.0, 45.0444
6.3766, 23.970, 2094.0, 45.7602
6.4092, 23.970, 2100.0, 45.8258
6.4418, 23.970, 2170.0, 46.5833
6.4744, 23.970, 2086.0, 45.6727
6.507, 23.970, 2133.0, 46.1844
6.5396, 23.970, 2105.0, 45.8803
6.5722, 23.970, 2160.0, 46.4758
6.6048, 23.970, 2205.0, 46.9574
6.6374, 23.970, 2196.0, 46.8615
6.67, 23.970, 2145.0, 46.3141
6.7026, 23.970, 2125.0, 46.0977
6.7352, 23.970, 2118.0, 46.0217
6.7678, 23.970, 2354.0, 48.5180
6.8004, 23.970, 2199.0, 46.8935
6.833, 23.970, 2198.0, 46.8828
6.86559, 23.970, 2221.0, 47.1275
6.89819, 23.970, 2327.0, 48.2390
6.93079, 23.970, 2327.0, 48.2390
6.96339, 23.970, 2237.0, 47.2969
6.99599, 23.970, 2339.0, 48.3632
7.02859, 23.970, 2347.0, 48.4458
7.06119, 23.970, 2166.0, 46.5403
7.09379, 23.970, 2260.0, 47.5395
7.12639, 23.970, 2334.0, 48.3115
7.15899, 23.970, 2410.0, 49.0918
7.19159, 23.970, 2389.0, 48.8774
7.22419, 23.970, 2464.0, 49.6387
7.25679, 23.970, 2290.0, 47.8539
7.28939, 23.970, 2308.0, 48.0416
7.32198, 23.970, 2453.0, 49.5278
7.35458, 23.970, 2395.0, 48.9387
7.38718, 23.970, 2338.0, 48.3529
7.41978, 23.970, 2342.0, 48.3942
7.45238, 23.970, 2358.0, 48.5592
7.48498, 23.970, 2451.0, 49.5076
7.51758, 23.970, 2430.0, 49.2950
7.55018, 23.970, 2404.0, 49.0306
7.58278, 23.970, 2431.0, 49.3052
7.61538, 23.970, 2470.0, 49.6991
7.64798, 23.970, 2504.0, 50.0400
7.68058, 23.970, 2447.0, 49.4672
7.71318, 23.970, 2517.0, 50.1697
7.74578, 23.970, 2366.0, 48.6415
7.77838, 23.970, 2460.0, 49.5984
7.81097, 23.970, 2531.0, 50.3090
7.84357, 23.970, 2519.0, 50.1896
7.87617, 23.970, 2478.0, 49.7795
7.90877, 23.970, 2473.0, 49.7293
7.94137, 23.970, 2546.0, 50.4579
7.97397, 23.970, 2537.0, 50.3686
8.00657, 23.970, 2561.0, 50.6063
8.03917, 23.970, 2566.0, 50.6557
8.07177, 23.970, 2494.0, 49.9400
8.10437, 23.970, 2483.0, 49.8297
8.13697, 23.970, 2518.0, 50.1797
8.16957, 23.970, 2634.0, 51.3225
8.20217, 23.970, 2489.0, 49.8899
8.23477, 23.970, 2541.0, 50.4083
8.26737, 23.970, 2448.0, 49.4773
8.29996, 23.970, 2493.0, 49.9300
8.33256, 23.970, 2544.0, 50.4381
8.36516, 23.970, 2467.0, 49.6689
8.39776, 23.970, 2584.0, 50.8331
8.43036, 23.970, 2582.0, 50.8134
8.46296, 23.970, 2509.0, 50.0899
8.49556, 23.970, 2475.0, 49.7494
8.52816, 23.970, 2489.0, 49.8899
8.56076, 23.970, 2677.0, 51.7397
8.59336, 23.970, 2610.0, 51.0882
8.62596, 23.970, 2612.0, 51.1077
8.65856, 23.970, 2512.0, 50.1199
8.69116, 23.970, 2479.0, 49.7896
8.72376, 23.970, 2566.0, 50.6557
8.75636, 23.970, 2458.0, 49.5782
8.78895, 23.970, 2503.0, 50.0300
8.82155, 23.970, 2483.0, 49.8297
8.85415, 23.970, 2501.0, 50.0100
8.88675, 23.970, 2585.0, 50.8429
8.91935, 23.970, 2687.0, 51.8363
8.95195, 23.970, 2441.0, 49.4065
8.98455, 23.970, 2621.0, 51.1957
9.01715, 23.970, 2460.0, 49.5984
9.04975, 23.970, 2559.0, 50.5866
9.08235, 23.970, 2489.0, 49.8899
9.11495, 23.970, 2635.0, 51.3323
9.14755, 23.970, 2602.0, 51.0098
9.18015, 23.970, 2509.0, 50.0899
9.21275, 23.970, 2595.0, 50.9411
9.24534, 23.970, 2556.0, 50.5569
9.27794, 23.970, 2580.0, 50.7937
9.31054, 23.970, 2572.0, 50.7149
9.34314, 23.970, 2560.0, 50.5964
9.37574, 23.970, 2588.0, 50.8724
9.40834, 23.970, 2513.0, 50.1298
9.44094, 23.970, 2582.0, 50.8134
9.47354, 23.970, 2444.0, 49.4368
9.50614, 23.970, 2473.0, 49.7293
9.53874, 23.970, 2531.0, 50.3090
9.57134, 23.970, 2469.0, 49.6890
9.60394, 23.970, 2460.0, 49.5984
9.63654, 23.970, 2508.0, 50.0799
9.66914, 23.970, 2444.0, 49.4368
9.70174, 23.970, 2566.0, 50.6557
9.73433, 23.970, 2436.0, 49.3559
9.76693, 23.970, 2421.0, 49.2037
9.79953, 23.970, 2417.0, 49.1630
9.83213, 23.970, 2507.0, 50.0700
9.86473, 23.970, 2419.0, 49.1833
9.89733, 23.970, 2442.0, 49.4166
9.92993, 23.970, 2533.0, 50.3289
9.96253, 23.970, 2498.0, 49.9800
9.99513, 23.970, 2467.0, 49.6689
10.0277, 23.970, 2440.0, 49.3964
10.0603, 23.970, 2435.0, 49.3457
10.0929, 23.970, 2409.0, 49.0816
10.1255, 23.970, 2313.0, 48.0937
10.1581, 23.970, 2381.0, 48.7955
10.1907, 23.970, 2421.0, 49.2037
10.2233, 23.970, 2352.0, 48.4974
10.2559, 23.970, 2439.0, 49.3862
10.2885, 23.970, 2313.0, 48.0937
10.3211, 23.970, 2353.0, 48.5077
10.3537, 23.970, 2445.0, 49.4469
10.3863, 23.970, 2421.0, 49.2037
10.4189, 23.970, 2367.0, 48.6518
10.4515, 23.970, 2353.0, 48.5077
10.4841, 23.970, 2429.0, 49.2849
10.5167, 23.970, 2313.0, 48.0937
10.5493, 23.970, 2369.0, 48.6724
10.5819, 23.970, 2323.0, 48.1975
10.6145, 23.970, 2323.0, 48.1975
10.6471, 23.970, 2255.0, 47.4868
10.6797, 23.970, 2334.0, 48.3115
10.7123, 23.970, 2380.0, 48.7852
10.7449, 23.970, 2261.0, 47.5500
10.7775, 23.970, 2258.0, 47.5184
10.8101, 23.970, 2389.0, 48.8774
10.8427, 23.970, 2244.0, 47.3709
10.8753, 23.970, 2284.0, 47.7912
10.9079, 23.970, 2307.0, 48.0312
10.9405, 23.970, 2270.0, 47.6445
10.9731, 23.970, 2225.0, 47.1699
11.0057, 23.970, 2279.0, 47.7389
11.0383, 23.970, 2306.0, 48.0208
11.0709, 23.970, 2265.0, 47.5920
11.1035, 23.970, 2230.0, 47.2229
11.1361, 23.970, 2239.0, 47.3181
11.1687, 23.970, 2202.0, 46.9255
11.2013, 23.970, 2270.0, 47.6445
11.2339, 23.970, 2216.0, 47.0744
11.2665, 23.970, 2158.0, 46.4543
11.2991, 23.970, 2283.0, 47.7807
11.3317, 23.970, 2154.0, 46.4112
11.3643, 23.970, 2213.0, 47.0425
11.3969, 23.970, 2183.0, 46.7226
11.4295, 23.970, 2042.0, 45.1885
11.4621, 23.970, 2093.0, 45.7493
11.4947, 23.970, 2209.0, 47.0000
11.5273, 23.970, 2126.0, 46.1086
11.5599, 23.970, 2140.0, 46.2601
11.5925, 23.970, 2104.0, 45.8694
11.6251, 23.970, 2046.0, 45.2327
11.6577, 23.970, 2064.0, 45.4313
11.6903, 23.970, 2099.0, 45.8148
11.7229, 23.970, 2089.0, 45.7056
11.7555, 23.970, 2143.0, 46.2925
11.7881, 23.970, 2099.0, 45.8148
11.8207, 23.970, 2075.0, 45.5522
11.8533, 23.970, 2097.0, 45.7930
11.8859, 23.970, 2134.0, 46.1952
11.9185, 23.970, 2138.0, 46.2385
11.9511, 23.970, 2032.0, 45.0777
11.9837, 23.970, 1982.0, 44.5197
12.0163, 23.970, 2109.0, 45.9239
12.0489, 23.970, 2060.0, 45.3872
12.0815, 23.970, 2051.0, 45.2880
12.1141, 23.970, 1985.0, 44.5533
12.1467, 23.970, 1986.0, 44.5646
12.1793, 23.970, 2106.0, 45.8912
12.2119, 23.970, 2069.0, 45.4863
12.2445, 23.970, 2049.0, 45.2659
12.2771, 23.970, 2034.0, 45.0999
12.3097, 23.970, 1974.0, 44.4297
12.3423, 23.970, 1951.0, 44.1701
12.3749, 23.970, 2130.0, 46.1519
12.4075, 23.970, 2061.0, 45.3982
12.4401, 23.970, 1939.0, 44.0341
12.4727, 23.970, 1917.0, 43.7836
12.5053, 23.970, 1932.0, 43.9545
12.5379, 23.970, 1910.0, 43.7035
12.5705, 23.970, 1971.0, 44.3959
12.6031, 23.970, 2015.0, 44.8888
12.6357, 23.970, 1969.0, 44.3734
12.6683, 23.970, 2077.0, 45.5741
12.7009, 23.970, 1976.0, 44.4522
12.7335, 23.970, 2040.0, 45.1664
12.7661, 23.970, 1980.0, 44.4972
12.7987, 23.970, 2035.0, 45.1110
12.8313, 23.970, 1936.0, 44.0000
12.8639, 23.970, 1877.0, 43.3244
12.8965, 23.970, 1910.0, 43.7035
12.9291, 23.970, 1962.0, 44.2945
12.9617, 23.970, 1981.0, 44.5084
12.9943, 23.970, 1900.0, 43.5890
13.0269, 23.970, 1999.0, 44.7102
13.0595, 23.970, 2017.0, 44.9110
13.0921, 23.970, 1967.0, 44.3509
13.1247, 23.970, 1906.0, 43.6578
13.1573, 23.970, 1945.0, 44.1022
13.1899, 23.970, 1903.0, 43.6234
13.2225, 23.970, 1959.0, 44.2606
13.2551, 23.970, 1937.0, 44.0114
13.2877, 23.970, 1977.0, 44.4635
13.3203, 23.970, 1962.0, 44.2945
13.3529, 23.970, 1979.0, 44.4860
13.3855, 23.970, 1890.0, 43.4741
13.4181, 23.970, 1977.0, 44.4635
13.4507, 23.970, 1878.0, 43.3359
13.4833, 23.970, 1972.0, 44.4072
13.5159, 23.970, 1934.0, 43.9773
13.5485, 23.970, 2000.0, 44.7214
13.5811, 23.970, 2023.0, 44.9778
13.6137, 23.970, 1951.0, 44.1701
13.6463, 23.970, 1896.0, 43.5431
13.6789, 23.970, 1929.0, 43.9204
13.7115, 23.970, 1927.0, 43.8976
13.7441, 23.970, 1957.0, 44.2380
13.7767, 23.970, 2042.0, 45.1885
13.8092, 23.970, 1951.0, 44.1701
13.8418, 23.970, 1934.0, 43.9773
13.8744, 23.970, 1901.0, 43.6005
13.907, 23.970, 1987.0, 44.5758
13.9396, 23.970, 2002.0, 44.7437
13.9722, 23.970, 1919.0, 43.8064
14.0048, 23.970, 1938.0, 44.0227
14.0374, 23.970, 1934.0, 43.9773
14.07, 23.970, 1939.0, 44.0341
14.1026, 23.970, 1846.0, 42.9651
14.1352, 23.970, 1973.0, 44.4185
14.1678, 23.970, 1994.0, 44.6542
14.2004, 23.970, 1977.0, 44.4635
14.233, 23.970, 1994.0, 44.6542
14.2656, 23.970, 1873.0, 43.2782
14.2982, 23.970, 1887.0, 43.4396
14.3308, 23.970, 2026.0, 45.0111
14.3634, 23.970, 2054.0, 45.3211
14.396, 23.970, 2035.0, 45.1110
14.4286, 23.970, 1941.0, 44.0568
14.4612, 23.970, 1989.0, 44.5982
14.4938, 23.970, 1956.0, 44.2267
14.5264, 23.970, 1997.0, 44.6878
14.559, 23.970, 2028.0, 45.0333
14.5916, 23.970, 2102.0, 45.8476
14.6242, 23.970, 1985.0, 44.5533
14.6568, 23.970, 2074.0, 45.5412
14.6894, 23.970, 2065.0, 45.4423
14.722, 23.970, 2053.0, 45.3100
14.7546, 23.970, 1952.0, 44.1814
14.7872, 23.970, 2126.0, 46.1086
14.8198, 23.970, 2109.0, 45.9239
14.8524, 23.970, 2102.0, 45.8476
14.885, 23.970, 2111.0, 45.9456
14.9176, 23.970, 2062.0, 45.4093
14.9502, 23.970, 2135.0, 46.2061
14.9828, 23.970, 1991.0, 44.6206
15.0154, 23.970, 2149.0, 46.3573
15.048, 23.970, 2193.0, 46.8295
15.0806, 23.970, 2165.0, 46.5296
15.1132, 23.970, 2116.0, 46.0000
15.1458, 23.970, 2183.0, 46.7226
15.1784, 23.970, 2137.0, 46.2277
15.211, 23.970, 2174.0, 46.6262
15.2436, 23.970, 2143.0, 46.2925
15.2762, 23.970, 2162.0, 46.4973
15.3088, 23.970, 2171.0, 46.5940
15.3414, 23.970, 2182.0, 46.7119
15.374, 23.970, 2154.0, 46.4112
15.4066, 23.970, 2167.0, 46.5510
15.4392, 23.970, 2174.0, 46.6262
15.4718, 23.970, 2253.0, 47.4658
15.5044, 23.970, 2204.0, 46.9468
15.537, 23.970, 2298.0, 47.9375
15.5696, 23.970, 2177.0, 46.6583
15.6022, 23.970, 2265.0, 47.5920
15.6348, 23.970, 2171.0, 46.5940
15.6674, 23.970, 2355.0, 48.5283
15.7, 23.970, 2282.0, 47.7703
15.7326, 23.970, 2338.0, 48.3529
15.7652, 23.970, 2227.0, 47.1911
15.7978, 23.970, 2270.0, 47.6445
15.8304, 23.970, 2339.0, 48.3632
15.863, 23.970, 2329.0, 48.2597
15.8956, 23.970, 2414.0, 49.1325
15.9282, 23.970, 2414.0, 49.1325
15.9608, 23.970, 2299.0, 47.9479
15.9934, 23.970, 2380.0, 48.7852
16.026, 23.970, 2377.0, 48.7545
16.0586, 23.970, 2418.0, 49.1732
16.0912, 23.970, 2358.0, 48.5592
16.1238, 23.970, 2521.0, 50.2096
16.1564, 23.970, 2493.0, 49.9300
16.189, 23.970, 2469.0, 49.6890
16.2216, 23.970, 2504.0, 50.0400
16.2542, 23.970, 2445.0, 49.4469
16.2868, 23.970, 2600.0, 50.9902
16.3194, 23.970, 2571.0, 50.7050
16.352, 23.970, 2571.0, 50.7050
16.3846, 23.970, 2538.0, 50.3786
16.4172, 23.970, 2482.0, 49.8197
16.4498, 23.970, 2682.0, 51.7880
16.4824, 23.970, 2620.0, 51.1859
16.515, 23.970, 2629.0, 51.2738
16.5476, 23.970, 2728.0, 52.2303
16.5802, 23.970, 2643.0, 51.4101
16.6128, 23.970, 2684.0, 51.8073
16.6454, 23.970, 2634.0, 51.3225
16.678, 23.970, 2777.0, 52.6972
16.7106, 23.970, 2718.0, 52.1344
16.7432, 23.970, 2830.0, 53.1977
16.7758, 23.970, 2815.0, 53.0566
16.8084, 23.970, 2704.0, 52.0000
16.841, 23.970, 2898.0, 53.8331
16.8736, 23.970, 2836.0, 53.2541
16.9062, 23.970, 2791.0, 52.8299
16.9388, 23.970, 2982.0, 54.6077
16.9714, 23.970, 3021.0, 54.9636
17.004, 23.970, 3049.0, 55.2178
17.0366, 23.970, 2990.0, 54.6809
17.0692, 23.970, 3036.0, 55.0999
17.1018, 23.970, 3039.0, 55.1271
17.1344, 23.970, 3156.0, 56.1783
17.167, 23.970, 3085.0, 55.5428
17.1996, 23.970, 3097.0, 55.6507
17.2322, 23.970, 3201.0, 56.5774
17.2648, 23.970, 3203.0, 56.5951
17.2974, 23.970, 3232.0, 56.8507
17.33, 23.970, 3226.0, 56.7979
17.3626, 23.970, 3241.0, 56.9298
17.3952, 23.970, 3382.0, 58.1550
17.4278, 23.970, 3425.0, 58.5235
17.4604, 23.970, 3336.0, 57.7581
17.493, 23.970, 3399.0, 58.3009
17.5256, 23.970, 3415.0, 58.4380
17.5582, 23.970, 3403.0, 58.3352
17.5908, 23.970, 3553.0, 59.6070
17.6234, 23.970, 3488.0, 59.0593
17.656, 23.970, 3581.0, 59.8415
17.6886, 23.970, 3683.0, 60.6877
17.7212, 23.970, 3604.0, 60.0333
17.7538, 23.970, 3483.0, 59.0169
17.7864, 23.970, 3576.0, 59.7997
17.819, 23.970, 3774.0, 61.4329
17.8516, 23.970, 3839.0, 61.9597
17.8842, 23.970, 3828.0, 61.8708
17.9168, 23.970, 3874.0, 62.2415
17.9494, 23.970, 3828.0, 61.8708
17.982, 23.970, 3906.0, 62.4980
18.0146, 23.970, 3911.0, 62.5380
18.0472, 23.970, 4007.0, 63.3009
18.0798, 23.970, 3970.0, 63.0079
18.1124, 23.970, 4080.0, 63.8749
18.145, 23.970, 4049.0, 63.6318
18.1776, 23.970, 4079.0, 63.8670
18.2102, 23.970, 4270.0, 65.3452
18.2428, 23.970, 4194.0, 64.7611
18.2754, 23.970, 4287.0, 65.4752
18.308, 23.970, 4197.0, 64.7843
18.3406, 23.970, 4313.0, 65.6734
18.3732, 23.970, 4392.0, 66.2722
18.4058, 23.970, 4390.0, 66.2571
18.4384, 23.970, 4491.0, 67.0149
18.471, 23.970, 4443.0, 66.6558
18.5036, 23.970, 4454.0, 66.7383
18.5362, 23.970, 4595.0, 67.7864
18.5688, 23.970, 4689.0, 68.4763
18.6013, 23.970, 4786.0, 69.1809
18.6339, 23.970, 4611.0, 67.9043
18.6665, 23.970, 4717.0, 68.6804
18.6991, 23.970, 4718.0, 68.6877
18.7317, 23.970, 4776.0, 69.1086
18.7643, 23.970, 4726.0, 68.7459
18.7969, 23.970, 4815.0, 69.3902
18.8295, 23.970, 5011.0, 70.7884
18.8621, 23.970, 4964.0, 70.4557
18.8947, 23.970, 5038.0, 70.9789
18.9273, 23.970, 5186.0, 72.0139
18.9599, 23.970, 5077.0, 71.2531
18.9925, 23.970, 5067.0, 71.1829
19.0251, 23.970, 5239.0, 72.3809
19.0577, 23.970, 5001.0, 70.7177
19.0903, 23.970, 5208.0, 72.1665
19.1229, 23.970, 5375.0, 73.3144
19.1555, 23.970, 5284.0, 72.6911
19.1881, 23.970, 5301.0, 72.8080
19.2207, 23.970, 5447.0, 73.8038
19.2533, 23.970, 5527.0, 74.3438
19.2859, 23.970, 5524.0, 74.3236
19.3185, 23.970, 5471.0, 73.9662
19.3511, 23.970, 5698.0, 75.4851
19.3837, 23.970, 5686.0, 75.4056
19.4163, 23.970, 5713.0, 75.5844
19.4489, 23.970, 5827.0, 76.3348
19.4815, 23.970, 5839.0, 76.4133
19.5141, 23.970, 5795.0, 76.1249
19.5467, 23.970, 5928.0, 76.9935
19.5793, 23.970, 5754.0, 75.8551
19.6119, 23.970, 5928.0, 76.9935
19.6445, 23.970, 5965.0, 77.2334
19.6771, 23.970, 5900.0, 76.8115
19.7097, 23.970, 5950.0, 77.1362
19.7423, 23.970, 5923.0, 76.9610
19.7749, 23.970, 5971.0, 77.2722
19.8075, 23.970, 5888.0, 76.7333
19.8401, 23.970, 5875.0, 76.6485
19.8727, 23.970, 5903.0, 76.8310
19.9053, 23.970, 5947.0, 77.1168
19.9379, 23.970, 5855.0, 76.5180
19.9705, 23.970, 5953.0, 77.1557
20.0031, 23.970, 5897.0, 76.7919
20.0357, 23.970, 6004.0, 77.4855
20.0683, 23.970, 6121.0, 78.2368
20.1009, 23.970, 6091.0, 78.0449
20.1335, 23.970, 6110.0, 78.1665
20.1661, 23.970, 6089.0, 78.0320
20.1987, 23.970, 6111.0, 78.1729
20.2313, 23.970, 6228.0, 78.9177
20.2639, 23.970, 6326.0, 79.5362
20.2965, 23.970, 6323.0, 79.5173
20.3291, 23.970, 6213.0, 78.8226
20.3617, 23.970, 6419.0, 80.1187
20.3943, 23.970, 6359.0, 79.7433
20.4269, 23.970, 6571.0, 81.0617
20.4595, 23.970, 6619.0, 81.3572
20.4921, 23.970, 6723.0, 81.9939
20.5247, 23.970, 6771.0, 82.2861
20.5573, 23.970, 6903.0, 83.0843
20.5899, 23.970, 7001.0, 83.6720
20.6225, 23.970, 7163.0, 84.6345
20.6551, 23.970, 7329.0, 85.6096
20.6877, 23.970, 7556.0, 86.9253
20.7203, 23.970, 7558.0, 86.9368
20.7529, 23.970, 7983.0, 89.3476
20.7855, 23.970, 8398.0, 91.6406
20.8181, 23.970, 8610.0, 92.7901
20.8507, 23.970, 9139.0, 95.5981
20.8833, 23.970, 9707.0, 98.5241
20.9159, 23.970, 10566.0, 102.7911
20.9485, 23.970, 11294.0, 106.2732
20.9811, 23.970, 12366.0, 111.2025
21.0137, 23.970, 13365.0, 115.6071
21.0463, 23.970, 15006.0, 122.4990
21.0789, 23.970, 16764.0, 129.4759
21.1115, 23.970, 18315.0, 135.3329
21.1441, 23.970, 20129.0, 141.8767
21.1767, 23.970, 22457.0, 149.8566
21.2093, 23.970, 24353.0, 156.0545
21.2419, 23.970, 26352.0, 162.3330
21.2745, 23.970, 28563.0, 169.0059
21.3071, 23.970, 30822.0, 175.5620
21.3397, 23.970, 33700.0, 183.5756
21.3723, 23.970, 37081.0, 192.5643
21.4049, 23.970, 40658.0, 201.6383
21.4375, 23.970, 44768.0, 211.5845
21.4701, 23.970, 48711.0, 220.7057
21.5027, 23.970, 53910.0, 232.1853
21.5353, 23.970, 58623.0, 242.1219
21.5679, 23.970, 62847.0, 250.6930
21.6005, 23.970, 68132.0, 261.0211
21.6331, 23.970, 71067.0, 266.5839
21.6657, 23.970, 72561.0, 269.3715
21.6983, 23.970, 73950.0, 271.9375
21.7309, 23.970, 71618.0, 267.6154
21.7635, 23.970, 66384.0, 257.6509
21.7961, 23.970, 59584.0, 244.0983
21.8287, 23.970, 50980.0, 225.7875
21.8613, 23.970, 41312.0, 203.2535
21.8939, 23.970, 32739.0, 180.9392
21.9265, 23.970, 25896.0, 160.9223
21.9591, 23.970, 19766.0, 140.5916
21.9917, 23.970, 15987.0, 126.4397
22.0243, 23.970, 12745.0, 112.8938
22.0569, 23.970, 10985.0, 104.8094
22.0895, 23.970, 9395.0, 96.9278
22.1221, 23.970, 8355.0, 91.4057
22.1547, 23.970, 7632.0, 87.3613
22.1873, 23.970, 7154.0, 84.5813
22.2199, 23.970, 6696.0, 81.8291
22.2525, 23.970, 6238.0, 78.9810
22.2851, 23.970, 6049.0, 77.7753
22.3177, 23.970, 5693.0, 75.4520
22.3503, 23.970, 5562.0, 74.5788
22.3829, 23.970, 5413.0, 73.5731
22.4155, 23.970, 5089.0, 71.3372
22.4481, 23.970, 5091.0, 71.3512
22.4807, 23.970, 4997.0, 70.6895
22.5133, 23.970, 4847.0, 69.6204
22.5459, 23.970, 4854.0, 69.6707
22.5785, 23.970, 4806.0, 69.3253
22.6111, 23.970, 4690.0, 68.4836
22.6437, 23.970, 4722.0, 68.7168
22.6763, 23.970, 4494.0, 67.0373
22.7089, 23.970, 4428.0, 66.5432
22.7415, 23.970, 4466.0, 66.8281
22.7741, 23.970, 4467.0, 66.8356
22.8067, 23.970, 4459.0, 66.7757
22.8393, 23.970, 4351.0, 65.9621
22.8719, 23.970, 4447.0, 66.6858
22.9045, 23.970, 4218.0, 64.9461
22.9371, 23.970, 4271.0, 65.3529
22.9697, 23.970, 4392.0, 66.2722
23.0023, 23.970, 4230.0, 65.0385
23.0349, 23.970, 4247.0, 65.1690
23.0675, 23.970, 4258.0, 65.2534
23.1001, 23.970, 4389.0, 66.2495
23.1327, 23.970, 4393.0, 66.2797
23.1653, 23.970, 4528.0, 67.2904
23.1979, 23.970, 4625.0, 68.0074
23.2305, 23.970, 4695.0, 68.5201
23.2631, 23.970, 4984.0, 70.5975
23.2957, 23.970, 5051.0, 71.0704
23.3283, 23.970, 5337.0, 73.0548
23.3609, 23.970, 5564.0, 74.5922
23.3934, 23.970, 5668.0, 75.2861
23.426, 23.970, 5888.0, 76.7333
23.4586, 23.970, 6218.0, 78.8543
23.4912, 23.970, 6621.0, 81.3695
23.5238, 23.970, 6900.0, 83.0662
23.5564, 23.970, 7437.0, 86.2380
23.589, 23.970, 7710.0, 87.8066
23.6216, 23.970, 8131.0, 90.1721
23.6542, 23.970, 8463.0, 91.9946
23.6868, 23.970, 8863.0, 94.1435
23.7194, 23.970, 9479.0, 97.3602
23.752, 23.970, 10173.0, 100.8613
23.7846, 23.970, 10474.0, 102.3426
23.8172, 23.970, 11067.0, 105.1998
23.8498, 23.970, 11792.0, 108.5910
23.8824, 23.970, 12335.0, 111.0630
23.915, 23.970, 12818.0, 113.2166
23.9476, 23.970, 13179.0, 114.7998
23.9802, 23.970, 13196.0, 114.8738
24.0128, 23.970, 13151.0, 114.6778
24.0454, 23.970, 13208.0, 114.9261
24.078, 23.970, 12804.0, 113.1548
24.1106, 23.970, 11900.0, 109.0871
24.1432, 23.970, 11381.0, 106.6818
24.1758, 23.970, 10247.0, 101.2275
24.2084, 23.970, 9070.0, 95.2365
24.241, 23.970, 8161.0, 90.3383
24.2736, 23.970, 7203.0, 84.8705
24.3062, 23.970, 6352.0, 79.6994
24.3388, 23.970, 5665.0, 75.2662
24.3714, 23.970, 5114.0, 71.5122
24.404, 23.970, 4512.0, 67.1714
24.4366, 23.970, 3988.0, 63.1506
24.4692, 23.970, 3677.0, 60.6383
24.5018, 23.970, 3511.0, 59.2537
24.5344, 23.970, 3374.0, 58.0861
24.567, 23.970, 3089.0, 55.5788
24.5996, 23.970, 2944.0, 54.2586
24.6322, 23.970, 2853.0, 53.4135
24.6648, 23.970, 2723.0, 52.1824
24.6974, 23.970, 2700.0, 51.9615
24.73, 23.970, 2675.0, 51.7204
24.7626, 23.970, 2618.0, 51.1664
24.7952, 23.970, 2453.0, 49.5278
24.8278, 23.970, 2487.0, 49.8698
24.8604, 23.970, 2527.0, 50.2693
24.893, 23.970, 2453.0, 49.5278
24.9256, 23.970, 2389.0, 48.8774
24.9582, 23.970, 2277.0, 47.7179
24.9908, 23.970, 2293.0, 47.8853
25.0234, 23.970, 2383.0, 48.8160
25.056, 23.970, 2315.0, 48.1144
25.0886, 23.970, 2149.0, 46.3573
25.1212, 23.970, 2128.0, 46.1303
25.1538, 23.970, 2135.0, 46.2061
25.1864, 23.970, 2145.0, 46.3141
25.219, 23.970, 2186.0, 46.7547
25.2516, 23.970, 2130.0, 46.1519
25.2842, 23.970, 2080.0, 45.6070
25.3168, 23.970, 2085.0, 45.6618
25.3494, 23.970, 2084.0, 45.6508
25.382, 23.970, 2036.0, 45.1221
25.4146, 23.970, 2040.0, 45.1664
25.4472, 23.970, 2065.0, 45.4423
25.4798, 23.970, 1968.0, 44.3621
25.5124, 23.970, 2025.0, 45.0000
25.545, 23.970, 1964.0, 44.3170
25.5776, 23.970, 1972.0, 44.4072
25.6102, 23.970, 1907.0, 43.6692
25.6428, 23.970, 1898.0, 43.5660
25.6754, 23.970, 1874.0, 43.2897
25.708, 23.970, 1917.0, 43.7836
25.7406, 23.970, 1907.0, 43.6692
25.7732, 23.970, 1872.0, 43.2666
25.8058, 23.970, 1811.0, 42.5558
25.8384, 23.970, 1876.0, 43.3128
25.871, 23.970, 1907.0, 43.6692
25.9036, 23.970, 1952.0, 44.1814
25.9362, 23.970, 1832.0, 42.8019
25.9688, 23.970, 1840.0, 42.8952
26.0014, 23.970, 1746.0, 41.7852
26.034, 23.970, 1753.0, 41.8688
26.0666, 23.970, 1818.0, 42.6380
26.0992, 23.970, 1703.0, 41.2674
26.1318, 23.970, 1817.0, 42.6263
26.1644, 23.970, 1726.0, 41.5452
26.197, 23.970, 1781.0, 42.2019
26.2296, 23.970, 1727.0, 41.5572
26.2622, 23.970, 1696.0, 41.1825
26.2948, 23.970, 1705.0, 41.2916
26.3274, 23.970, 1689.0, 41.0974
26.36, 23.970, 1738.0, 41.6893
26.3926, 23.970, 1680.0, 40.9878
26.4252, 23.970, 1683.0, 41.0244
26.4578, 23.970, 1669.0, 40.8534
26.4904, 23.970, 1583.0, 39.7869
26.523, 23.970, 1655.0, 40.6817
26.5556, 23.970, 1547.0, 39.3319
26.5882, 23.970, 1621.0, 40.2616
26.6208, 23.970, 1503.0, 38.7685
26.6534, 23.970, 1685.0, 41.0488
26.686, 23.970, 1526.0, 39.0640
26.7186, 23.970, 1652.0, 40.6448
26.7512, 23.970, 1507.0, 38.8201
26.7838, 23.970, 1591.0, 39.8873
26.8164, 23.970, 1610.0, 40.1248
26.849, 23.970, 1537.0, 39.2046
26.8816, 23.970, 1507.0, 38.8201
26.9142, 23.970, 1569.0, 39.6106
26.9468, 23.970, 1614.0, 40.1746
26.9794, 23.970, 1562.0, 39.5221
27.012, 23.970, 1538.0, 39.2173
27.0446, 23.970, 1514.0, 38.9102
27.0772, 23.970, 1579.0, 39.7366
27.1098, 23.970, 1502.0, 38.7556
27.1424, 23.970, 1520.0, 38.9872
27.175, 23.970, 1521.0, 39.0000
27.2076, 23.970, 1446.0, 38.0263
27.2402, 23.970, 1505.0, 38.7943
27.2728, 23.970, 1561.0, 39.5095
27.3054, 23.970, 1461.0, 38.2230
27.338, 23.970, 1451.0, 38.0920
27.3706, 23.970, 1474.0, 38.3927
27.4032, 23.970, 1479.0, 38.4578
27.4358, 23.970, 1453.0, 38.1182
27.4684, 23.970, 1400.0, 37.4166
27.501, 23.970, 1388.0, 37.2559
27.5336, 23.970, 1432.0, 37.8418
27.5662, 23.970, 1366.0, 36.9594
27.5988, 23.970, 1325.0, 36.4005
27.6314, 23.970, 1351.0, 36.7560
27.664, 23.970, 1414.0, 37.6032
27.6966, 23.970, 1358.0, 36.8511
27.7292, 23.970, 1494.0, 38.6523
27.7618, 23.970, 1439.0, 37.9342
27.7944, 23.970, 1310.0, 36.1939
27.827, 23.970, 1328.0, 36.4417
27.8596, 23.970, 1415.0, 37.6165
27.8922, 23.970, 1411.0, 37.5633
27.9248, 23.970, 1328.0, 36.4417
27.9574, 23.970, 1393.0, 37.3229
27.99, 23.970, 1336.0, 36.5513
28.0226, 23.970, 1367.0, 36.9730
28.0552, 23.970, 1319.0, 36.3180
28.0878, 23.970, 1338.0, 36.5787
28.1204, 23.970, 1359.0, 36.8646
28.153, 23.970, 1295.0, 35.9861
28.1855, 23.970, 1323.0, 36.3731
28.2181, 23.970, 1275.0, 35.7071
28.2507, 23.970, 1268.0, 35.6090
28.2833, 23.970, 1260.0, 35.4965
28.3159, 23.970, 1344.0, 36.6606
28.3485, 23.970, 1228.0, 35.0428
28.3811, 23.970, 1304.0, 36.1109
28.4137, 23.970, 1334.0, 36.5240
28.4463, 23.970, 1320.0, 36.3318
28.4789, 23.970, 1280.0, 35.7771
28.5115, 23.970, 1316.0, 36.2767
28.5441, 23.970, 1406.0, 37.4967
28.5767, 23.970, 1301.0, 36.0694
28.6093, 23.970, 1346.0, 36.6879
28.6419, 23.970, 1315.0, 36.2629
28.6745, 23.970, 1277.0, 35.7351
28.7071, 23.970, 1331.0, 36.4829
28.7397, 23.970, 1365.0, 36.9459
28.7723, 23.970, 1405.0, 37.4833
28.8049, 23.970, 1428.0, 37.7889
28.8375, 23.970, 1522.0, 39.0128
28.8701, 23.970, 1648.0, 40.5956
28.9027, 23.970, 1676.0, 40.9390
28.9353, 23.970, 1685.0, 41.0488
28.9679, 23.970, 1551.0, 39.3827
29.0005, 23.970, 1447.0, 38.0395
29.0331, 23.970, 1407.0, 37.5100
29.0657, 23.970, 1311.0, 36.2077
29.0983, 23.970, 1333.0, 36.5103
29.1309, 23.970, 1325.0, 36.4005
29.1635, 23.970, 1171.0, 34.2199
29.1961, 23.970, 1314.0, 36.2491
29.2287, 23.970, 1231.0, 35.0856
29.2613, 23.970, 1178.0, 34.3220
29.2939, 23.970, 1274.0, 35.6931
29.3265, 23.970, 1200.0, 34.6410
29.3591, 23.970, 1298.0, 36.0278
29.3917, 23.970, 1260.0, 35.4965
29.4243, 23.970, 1275.0, 35.7071
29.4569, 23.970, 1275.0, 35.7071
29.4895, 23.970, 1376.0, 37.0945
29.5221, 23.970, 1375.0, 37.0810
29.5547, 23.970, 1373.0, 37.0540
29.5873, 23.970, 1373.0, 37.0540
29.6199, 23.970, 1426.0, 37.7624
29.6525, 23.970, 1420.0, 37.6829
29.6851, 23.970, 1466.0, 38.2884
29.7177, 23.970, 1602.0, 40.0250
29.7503, 23.970, 1580.0, 39.7492
29.7829, 23.970, 1574.0, 39.6737
29.8155, 23.970, 1638.0, 40.4722
29.8481, 23.970, 1674.0, 40.9145
29.8807, 23.970, 1630.0, 40.3733
29.9133, 23.970, 1642.0, 40.5216
29.9459, 23.970, 1701.0, 41.2432
29.9785, 23.970, 1734.0, 41.6413
30.0111, 23.970, 1752.0, 41.8569
30.0437, 23.970, 1785.0, 42.2493
30.0763, 23.970, 1788.0, 42.2847
30.1089, 23.970, 1761.0, 41.9643
30.1415, 23.970, 1897.0, 43.5546
30.1741, 23.970, 1806.0, 42.4971
30.2067, 23.970, 1803.0, 42.4617
30.2393, 23.970, 1815.0, 42.6028
30.2719, 23.970, 1695.0, 41.1704
30.3045, 23.970, 1683.0, 41.0244
30.3371, 23.970, 1567.0, 39.5854
30.3697, 23.970, 1530.0, 39.1152
30.4023, 23.970, 1430.0, 37.8153
30.4349, 23.970, 1374.0, 37.0675
30.4675, 23.970, 1394.0, 37.3363
30.5001, 23.970, 1261.0, 35.5106
30.5327, 23.970, 1266.0, 35.5809
30.5653, 23.970, 1210.0, 34.7851
30.5979, 23.970, 1173.0, 34.2491
30.6305, 23.970, 1109.0, 33.3017
30.6631, 23.970, 1229.0, 35.0571
30.6957, 23.970, 1168.0, 34.1760
30.7283, 23.970, 1153.0, 33.9559
30.7609, 23.970, 1127.0, 33.5708
30.7935, 23.970, 1100.0, 33.1662
30.8261, 23.970, 1142.0, 33.7935
30.8587, 23.970, 1081.0, 32.8786
30.8913, 23.970, 1113.0, 33.3617
30.9239, 23.970, 1157.0, 34.0147
30.9565, 23.970, 1136.0, 33.7046
30.9891, 23.970, 1157.0, 34.0147
31.0217, 23.970, 1107.0, 33.2716
31.0543, 23.970, 1079.0, 32.8481
31.0869, 23.970, 1087.0, 32.9697
31.1195, 23.970, 1067.0, 32.6650
31.1521, 23.970, 1178.0, 34.3220
31.1847, 23.970, 1109.0, 33.3017
31.2173, 23.970, 1074.0, 32.7719
31.2499, 23.970, 1125.0, 33.5410
31.2825, 23.970, 1080.0, 32.8634
31.3151, 23.970, 1138.0, 33.7343
31.3477, 23.970, 1062.0, 32.5883
31.3803, 23.970, 1107.0, 33.2716
31.4129, 23.970, 1091.0, 33.0303
31.4455, 23.970, 1098.0, 33.1361
31.4781, 23.970, 1080.0, 32.8634
31.5107, 23.970, 1070.0, 32.7109
31.5433, 23.970, 1083.0, 32.9090
31.5759, 23.970, 1063.0, 32.6037
31.6085, 23.970, 1038.0, 32.2180
31.6411, 23.970, 1106.0, 33.2566
31.6737, 23.970, 1017.0, 31.8904
31.7063, 23.970, 1020.0, 31.9374
31.7389, 23.970, 1058.0, 32.5269
31.7715, 23.970, 1078.0, 32.8329
31.8041, 23.970, 1047.0, 32.3574
31.8367, 23.970, 1071.0, 32.7261
31.8693, 23.970, 1015.0, 31.8591
31.9019, 23.970, 1082.0, 32.8938
31.9345, 23.970, 1008.0, 31.7490
31.9671, 23.970, 1056.0, 32.4962
31.9997, 23.970, 1047.0, 32.3574
32.0323, 23.970, 1100.0, 33.1662
32.0649, 23.970, 1087.0, 32.9697
32.0975, 23.970, 1043.0, 32.2955
32.1301, 23.970, 1097.0, 33.1210
32.1627, 23.970, 1121.0, 33.4813
32.1953, 23.970, 1074.0, 32.7719
32.2279, 23.970, 1029.0, 32.0780
32.2605, 23.970, 1040.0, 32.2490
32.2931, 23.970, 1023.0, 31.9844
32.3257, 23.970, 1089.0, 33.0000
32.3583, 23.970, 994.0, 31.5278
32.3909, 23.970, 1076.0, 32.8024
32.4235, 23.970, 1093.0, 33.0606
32.4561, 23.970, 1012.0, 31.8119
32.4887, 23.970, 1083.0, 32.9090
32.5213, 23.970, 1024.0, 32.0000
32.5539, 23.970, 1057.0, 32.5115
32.5865, 23.970, 1041.0, 32.2645
32.6191, 23.970, 1035.0, 32.1714
32.6517, 23.970, 1104.0, 33.2265
32.6843, 23.970, 1104.0, 33.2265
32.7169, 23.970, 1019.0, 31.9218
32.7495, 23.970, 1044.0, 32.3110
32.7821, 23.970, 1061.0, 32.5730
32.8147, 23.970, 1016.0, 31.8748
32.8473, 23.970, 1070.0, 32.7109
32.8799, 23.970, 1122.0, 33.4963
32.9125, 23.970, 1063.0, 32.6037
32.9451, 23.970, 1077.0, 32.8177
32.9776, 23.970, 1053.0, 32.4500
33.0102, 23.970, 1057.0, 32.5115
33.0428, 23.970, 1040.0, 32.2490
33.0754, 23.970, 1022.0, 31.9687
33.108, 23.970, 1033.0, 32.1403
33.1406, 23.970, 967.0, 31.0966
33.1732, 23.970, 1032.0, 32.1248
33.2058, 23.970, 1060.0, 32.5576
33.2384, 23.970, 1063.0, 32.6037
33.271, 23.970, 1041.0, 32.2645
33.3036, 23.970, 973.0, 31.1929
33.3362, 23.970, 1024.0, 32.0000
33.3688, 23.970, 1000.0, 31.6228
33.4014, 23.970, 1056.0, 32.4962
33.434, 23.970, 1018.0, 31.9061
33.4666, 23.970, 1064.0, 32.6190
33.4992, 23.970, 1058.0, 32.5269
33.5318, 23.970, 1032.0, 32.1248
33.5644, 23.970, 1081.0, 32.8786
33.597, 23.970, 1076.0, 32.8024
33.6296, 23.970, 1029.0, 32.0780
33.6622, 23.970, 1032.0, 32.1248
33.6948, 23.970, 998.0, 31.5911
33.7274, 23.970, 1056.0, 32.4962
33.76, 23.970, 1068.0, 32.6803
33.7926, 23.970, 1054.0, 32.4654
33.8252, 23.970, 1017.0, 31.8904
33.8578, 23.970, 1079.0, 32.8481
33.8904, 23.970, 1051.0, 32.4191
33.923, 23.970, 1026.0, 32.0312
33.9556, 23.970, 1058.0, 32.5269
33.9882, 23.970, 1041.0, 32.2645
34.0208, 23.970, 1048.0, 32.3728
34.0534, 23.970, 1012.0, 31.8119
34.086, 23.970, 1115.0, 33.3916
34.1186, 23.970, 1017.0, 31.8904
34.1512, 23.970, 1032.0, 32.1248
34.1838, 23.970, 1035.0, 32.1714
34.2164, 23.970, 1072.0, 32.7414
34.249, 23.970, 1056.0, 32.4962
34.2816, 23.970, 1094.0, 33.0757
34.3142, 23.970, 1053.0, 32.4500
34.3468, 23.970, 1149.0, 33.8969
34.3794, 23.970, 1063.0, 32.6037
34.412, 23.970, 1100.0, 33.1662
34.4446, 23.970, 1025.0, 32.0156
34.4772, 23.970, 1049.0, 32.3883
34.5098, 23.970, 1117.0, 33.4215
34.5424, 23.970, 1032.0, 32.1248
34.575, 23.970, 1099.0, 33.1512
34.6076, 23.970, 1042.0, 32.2800
34.6402, 23.970, 1117.0, 33.4215
34.6728, 23.970, 1115.0, 33.3916
34.7054, 23.970, 1103.0, 33.2114
34.738, 23.970, 1073.0, 32.7567
34.7706, 23.970, 1084.0, 32.9242
34.8032, 23.970, 1070.0, 32.7109
34.8358, 23.970, 1042.0, 32.2800
34.8684, 23.970, 1104.0, 33.2265
34.901, 23.970, 1045.0, 32.3265
34.9336, 23.970, 1082.0, 32.8938
34.9662, 23.970, 1056.0, 32.4962
34.9988, 23.970, 1110.0, 33.3167
35.0314, 23.970, 1127.0, 33.5708
35.064, 23.970, 1108.0, 33.2866
35.0966, 23.970, 1141.0, 33.7787
35.1292, 23.970, 1088.0, 32.9848
35.1618, 23.970, 1083.0, 32.9090
35.1944, 23.970, 1218.0, 34.8999
35.227, 23.970, 1208.0, 34.7563
35.2596, 23.970, 1202.0, 34.6699
35.2922, 23.970, 1215.0, 34.8569
35.3248, 23.970, 1098.0, 33.1361
35.3574, 23.970, 1281.0, 35.7911
35.39, 23.970, 1211.0, 34.7994
35.4226, 23.970, 1269.0, 35.6230
35.4552, 23.970, 1341.0, 36.6197
35.4878, 23.970, 1374.0, 37.0675
35.5204, 23.970, 1340.0, 36.6060
35.553, 23.970, 1290.0, 35.9166
35.5856, 23.970, 1355.0, 36.8103
35.6182, 23.970, 1359.0, 36.8646
35.6508, 23.970, 1447.0, 38.0395
35.6834, 23.970, 1493.0, 38.6394
35.716, 23.970, 1508.0, 38.8330
35.7486, 23.970, 1613.0, 40.1622
35.7812, 23.970, 1711.0, 41.3642
35.8138, 23.970, 1793.0, 42.3438
35.8464, 23.970, 1933.0, 43.9659
35.879, 23.970, 2112.0, 45.9565
35.9116, 23.970, 2289.0, 47.8435
35.9442, 23.970, 2377.0, 48.7545
35.9768, 23.970, 2533.0, 50.3289
36.0094, 23.970, 2772.0, 52.6498
36.042, 23.970, 2869.0, 53.5630
36.0746, 23.970, 3074.0, 55.4437
36.1072, 23.970, 3379.0, 58.1292
36.1398, 23.970, 3543.0, 59.5231
36.1724, 23.970, 3711.0, 60.9180
36.205, 23.970, 3860.0, 62.1289
36.2376, 23.970, 4015.0, 63.3640
36.2702, 23.970, 4053.0, 63.6632
36.3028, 23.970, 4343.0, 65.9014
36.3354, 23.970, 4390.0, 66.2571
36.368, 23.970, 4355.0, 65.9924
36.4006, 23.970, 4294.0, 65.5286
36.4332, 23.970, 4175.0, 64.6142
36.4658, 23.970, 3922.0, 62.6259
36.4984, 23.970, 3782.0, 61.4980
36.531, 23.970, 3540.0, 59.4979
36.5636, 23.970, 3302.0, 57.4630
36.5962, 23.970, 2863.0, 53.5070
36.6288, 23.970, 2605.0, 51.0392
36.6614, 23.970, 2305.0, 48.0104
36.694, 23.970, 2056.0, 45.3431
36.7266, 23.970, 1983.0, 44.5309
36.7592, 23.970, 1765.0, 42.0119
36.7918, 23.970, 1686.0, 41.0609
36.8244, 23.970, 1639.0, 40.4846
36.857, 23.970, 1535.0, 39.1791
36.8896, 23.970, 1467.0, 38.3014
36.9222, 23.970, 1434.0, 37.8682
36.9548, 23.970, 1359.0, 36.8646
36.9874, 23.970, 1357.0, 36.8375
37.02, 23.970, 1272.0, 35.6651
37.0526, 23.970, 1222.0, 34.9571
37.0852, 23.970, 1307.0, 36.1525
37.1178, 23.970, 1243.0, 35.2562
37.1504, 23.970, 1220.0, 34.9285
37.183, 23.970, 1226.0, 35.0143
37.2156, 23.970, 1216.0, 34.8712
37.2482, 23.970, 1186.0, 34.4384
37.2808, 23.970, 1177.0, 34.3074
37.3134, 23.970, 1229.0, 35.0571
37.346, 23.970, 1244.0, 35.2704
37.3786, 23.970, 1226.0, 35.0143
37.4112, 23.970, 1200.0, 34.6410
37.4438, 23.970, 1206.0, 34.7275
37.4764, 23.970, 1181.0, 34.3657
37.509, 23.970, 1224.0, 34.9857
37.5416, 23.970, 1229.0, 35.0571
37.5742, 23.970, 1224.0, 34.9857
37.6068, 23.970, 1216.0, 34.8712
37.6394, 23.970, 1243.0, 35.2562
37.672, 23.970, 1202.0, 34.6699
37.7046, 23.970, 1186.0, 34.4384
37.7372, 23.970, 1188.0, 34.4674
37.7697, 23.970, 1224.0, 34.9857
37.8023, 23.970, 1246.0, 35.2987
37.8349, 23.970, 1266.0, 35.5809
37.8675, 23.970, 1240.0, 35.2136
37.9001, 23.970, 1297.0, 36.0139
37.9327, 23.970, 1317.0, 36.2905
37.9653, 23.970, 1283.0, 35.8190
37.9979, 23.970, 1342.0, 36.6333
38.0305, 23.970, 1343.0, 36.6470
38.0631, 23.970, 1285.0, 35.8469
38.0957, 23.970, 1410.0, 37.5500
38.1283, 23.970, 1446.0, 38.0263
38.1609, 23.970, 1428.0, 37.7889
38.1935, 23.970, 1431.0, 37.8286
38.2261, 23.970, 1492.0, 38.6264
38.2587, 23.970, 1455.0, 38.1445
38.2913, 23.970, 1549.0, 39.3573
38.3239, 23.970, 1537.0, 39.2046
38.3565, 23.970, 1441.0, 37.9605
38.3891, 23.970, 1520.0, 38.9872
38.4217, 23.970, 1535.0, 39.1791
38.4543, 23.970, 1550.0, 39.3700
38.4869, 23.970, 1445.0, 38.0132
38.5195, 23.970, 1496.0, 38.6782
38.5521, 23.970, 1545.0, 39.3065
38.5847, 23.970, 1433.0, 37.8550
38.6173, 23.970, 1406.0, 37.4967
38.6499, 23.970, 1397.0, 37.3765
38.6825, 23.970, 1393.0, 37.3229
38.7151, 23.970, 1343.0, 36.6470
38.7477, 23.970, 1297.0, 36.0139
38.7803, 23.970, 1357.0, 36.8375
38.8129, 23.970, 1377.0, 37.1080
38.8455, 23.970, 1415.0, 37.6165
38.8781, 23.970, 1437.0, 37.9078
38.9107, 23.970, 1547.0, 39.3319
38.9433, 23.970, 1420.0, 37.6829
38.9759, 23.970, 1483.0, 38.5097
39.0085, 23.970, 1524.0, 39.0384
39.0411, 23.970, 1446.0, 38.0263
39.0737, 23.970, 1372.0, 37.0405
39.1063, 23.970, 1407.0, 37.5100
39.1389, 23.970, 1423.0, 37.7227
39.1715, 23.970, 1448.0, 38.0526
39.2041, 23.970, 1402.0, 37.4433
39.2367, 23.970, 1433.0, 37.8550
39.2693, 23.970, 1567.0, 39.5854
39.3019, 23.970, 1591.0, 39.8873
39.3345, 23.970, 1657.0, 40.7063
39.3671, 23.970, 1636.0, 40.4475
39.3997, 23.970, 1675.0, 40.9268
39.4323, 23.970, 1908.0, 43.6807
39.4649, 23.970, 1868.0, 43.2204
39.4975, 23.970, 2039.0, 45.1553
39.5301, 23.970, 2159.0, 46.4650
39.5627, 23.970, 2188.0, 46.7761
39.5953, 23.970, 2293.0, 47.8853
39.6279, 23.970, 2364.0, 48.6210
39.6605, 23.970, 2438.0, 49.3761
39.6931, 23.970, 2514.0, 50.1398
39.7257, 23.970, 2625.0, 51.2348
39.7583, 23.970, 2521.0, 50.2096
39.7909, 23.970, 2596.0, 50.9510
39.8235, 23.970, 2670.0, 51.6720
39.8561, 23.970, 2664.0, 51.6140
39.8887, 23.970, 2672.0, 51.6914
39.9213, 23.970, 2599.0, 50.9804
39.9539, 23.970, 2431.0, 49.3052
39.9865, 23.970, 2437.0, 49.3660
40.0191, 23.970, 2405.0, 49.0408
40.0517, 23.970, 2217.0, 47.0850
40.0843, 23.970, 2291.0, 47.8644
40.1169, 23.970, 2220.0, 47.1169
40.1495, 23.970, 2160.0, 46.4758
40.1821, 23.970, 2048.0, 45.2548
40.2147, 23.970, 1979.0, 44.4860
40.2473, 23.970, 1950.0, 44.1588
40.2799, 23.970, 1920.0, 43.8178
40.3125, 23.970, 1901.0, 43.6005
40.3451, 23.970, 1917.0, 43.7836
40.3777, 23.970, 1939.0, 44.0341
40.4103, 23.970, 1881.0, 43.3705
40.4429, 23.970, 1981.0, 44.5084
40.4755, 23.970, 1922.0, 43.8406
40.5081, 23.970, 1938.0, 44.0227
40.5407, 23.970, 1977.0, 44.4635
40.5733, 23.970, 2073.0, 45.5302
40.6059, 23.970, 2094.0, 45.7602
40.6385, 23.970, 2097.0, 45.7930
40.6711, 23.970, 2088.0, 45.6946
40.7037, 23.970, 2199.0, 46.8935
40.7363, 23.970, 2142.0, 46.2817
40.7689, 23.970, 2001.0, 44.7325
40.8015, 23.970, 2082.0, 45.6289
40.8341, 23.970, 2075.0, 45.5522
40.8667, 23.970, 2010.0, 44.8330
40.8993, 23.970, 2015.0, 44.8888
40.9319, 23.970, 2041.0, 45.1774
40.9645, 23.970, 1897.0, 43.5546
40.9971, 23.970, 1822.0, 42.6849
41.0297, 23.970, 1870.0, 43.2435
41.0623, 23.970, 1769.0, 42.0595
41.0949, 23.970, 1764.0, 42.0000
41.1275, 23.970, 1754.0, 41.8808
41.1601, 23.970, 1741.0, 41.7253
41.1927, 23.970, 1699.0, 41.2189
41.2253, 23.970, 1669.0, 40.8534
41.2579, 23.970, 1725.0, 41.5331
41.2905, 23.970, 1713.0, 41.3884
41.3231, 23.970, 1859.0, 43.1161
41.3557, 23.970, 1719.0, 41.4608
41.3883, 23.970, 1832.0, 42.8019
41.4209, 23.970, 1821.0, 42.6732
41.4535, 23.970, 1899.0, 43.5775
41.4861, 23.970, 1857.0, 43.0929
41.5187, 23.970, 1970.0, 44.3847
41.5513, 23.970, 2018.0, 44.9222
41.5839, 23.970, 2099.0, 45.8148
41.6165, 23.970, 2053.0, 45.3100
41.6491, 23.970, 2114.0, 45.9783
41.6817, 23.970, 2089.0, 45.7056
41.7143, 23.970, 2087.0, 45.6837
41.7469, 23.970, 2066.0, 45.4533
41.7795, 23.970, 2130.0, 46.1519
41.8121, 23.970, 2026.0, 45.0111
41.8447, 23.970, 2078.0, 45.5851
41.8773, 23.970, 2036.0, 45.1221
41.9099, 23.970, 1876.0, 43.3128
41.9425, 23.970, 1914.0, 43.7493
41.9751, 23.970, 1836.0, 42.8486
42.0077, 23.970, 1723.0, 41.5090
42.0403, 23.970, 1639.0, 40.4846
42.0729, 23.970, 1642.0, 40.5216
42.1055, 23.970, 1537.0, 39.2046
42.1381, 23.970, 1504.0, 38.7814
42.1707, 23.970, 1530.0, 39.1152
42.2033, 23.970, 1513.0, 38.8973
42.2359, 23.970, 1515.0, 38.9230
42.2685, 23.970, 1443.0, 37.9868
42.3011, 23.970, 1437.0, 37.9078
42.3337, 23.970, 1524.0, 39.0384
42.3663, 23.970, 1419.0, 37.6696
42.3989, 23.970, 1515.0, 38.9230
42.4315, 23.970, 1557.0, 39.4588
42.4641, 23.970, 1559.0, 39.4842
42.4967, 23.970, 1614.0, 40.1746
42.5293, 23.970, 1575.0, 39.6863
42.5618, 23.970, 1732.0, 41.6173
42.5944, 23.970, 1799.0, 42.4146
42.627, 23.970, 1834.0, 42.8252
42.6596, 23.970, 1992.0, 44.6318
42.6922, 23.970, 2022.0, 44.9667
42.7248, 23.970, 1990.0, 44.6094
42.7574, 23.970, 2066.0, 45.4533
42.79, 23.970, 2050.0, 45.2769
42.8226, 23.970, 2080.0, 45.6070
42.8552, 23.970, 1980.0, 44.4972
42.8878, 23.970, 2154.0, 46.4112
42.9204, 23.970, 2049.0, 45.2659
42.953, 23.970, 2106.0, 45.8912
42.9856, 23.970, 2207.0, 46.9787
43.0182, 23.970, 2139.0, 46.2493
43.0508, 23.970, 2199.0, 46.8935
43.0834, 23.970, 2231.0, 47.2335
43.116, 23.970, 2206.0, 46.9681
43.1486, 23.970, 2199.0, 46.8935
43.1812, 23.970, 2194.0, 46.8402
43.2138, 23.970, 2087.0, 45.6837
43.2464, 23.970, 2019.0, 44.9333
43.279, 23.970, 1922.0, 43.8406
43.3116, 23.970, 1813.0, 42.5793
43.3442, 23.970, 1828.0, 42.7551
43.3768, 23.970, 1702.0, 41.2553
43.4094, 23.970, 1742.0, 41.7373
43.442, 23.970, 1767.0, 42.0357
43.4746, 23.970, 1739.0, 41.7013
43.5072, 23.970, 1702.0, 41.2553
43.5398, 23.970, 1697.0, 41.1947
43.5724, 23.970, 1686.0, 41.0609
43.605, 23.970, 1718.0, 41.4488
43.6376, 23.970, 1706.0, 41.3038
43.6702, 23.970, 1650.0, 40.6202
43.7028, 23.970, 1653.0, 40.6571
43.7354, 23.970, 1624.0, 40.2989
43.768, 23.970, 1757.0, 41.9166
43.8006, 23.970, 1696.0, 41.1825
43.8332, 23.970, 1764.0, 42.0000
43.8658, 23.970, 1734.0, 41.6413
43.8984, 23.970, 1676.0, 40.9390
43.931, 23.970, 1803.0, 42.4617
43.9636, 23.970, 1771.0, 42.0833
43.9962, 23.970, 1744.0, 41.7612
44.0288, 23.970, 1775.0, 42.1307
44.0614, 23.970, 1708.0, 41.3280
44.094, 23.970, 1730.0, 41.5933
44.1266, 23.970, 1728.0, 41.5692
44.1592, 23.970, 1619.0, 40.2368
44.1918, 23.970, 1578.0, 39.7240
44.2244, 23.970, 1520.0, 38.9872
44.257, 23.970, 1516.0, 38.9358
44.2896, 23.970, 1400.0, 37.4166
44.3222, 23.970, 1397.0, 37.3765
44.3548, 23.970, 1285.0, 35.8469
44.3874, 23.970, 1285.0, 35.8469
44.42, 23.970, 1329.0, 36.4555
44.4526, 23.970, 1177.0, 34.3074
44.4852, 23.970, 1251.0, 35.3695
44.5178, 23.970, 1178.0, 34.3220
44.5504, 23.970, 1172.0, 34.2345
44.583, 23.970, 1180.0, 34.3511
44.6156, 23.970, 1112.0, 33.3467
44.6482, 23.970, 1131.0, 33.6303
44.6808, 23.970, 1154.0, 33.9706
44.7134, 23.970, 1136.0, 33.7046
44.746, 23.970, 1092.0, 33.0454
44.7786, 23.970, 1062.0, 32.5883
44.8112, 23.970, 1108.0, 33.2866
44.8438, 23.970, 1096.0, 33.1059
44.8764, 23.970, 1098.0, 33.1361
44.909, 23.970, 1080.0, 32.8634
44.9416, 23.970, 1063.0, 32.6037
44.9742, 23.970, 1086.0, 32.9545
45.0068, 23.970, 1090.0, 33.0151
45.0394, 23.970, 1075.0, 32.7872
45.072, 23.970, 1062.0, 32.5883
45.1046, 23.970, 1070.0, 32.7109
45.1372, 23.970, 1068.0, 32.6803
45.1698, 23.970, 983.0, 31.3528
45.2024, 23.970, 1037.0, 32.2025
45.235, 23.970, 1076.0, 32.8024
45.2676, 23.970, 1081.0, 32.8786
45.3002, 23.970, 1099.0, 33.1512
45.3328, 23.970, 1045.0, 32.3265
45.3654, 23.970, 1065.0, 32.6343
45.398, 23.970, 1087.0, 32.9697
45.4306, 23.970, 1036.0, 32.1870
45.4632, 23.970, 1069.0, 32.6956
45.4958, 23.970, 991.0, 31.4802
45.5284, 23.970, 1079.0, 32.8481
45.561, 23.970, 1070.0, 32.7109
45.5936, 23.970, 1020.0, 31.9374
45.6262, 23.970, 1128.0, 33.5857
45.6588, 23.970, 1014.0, 31.8434
45.6914, 23.970, 994.0, 31.5278
45.724, 23.970, 999.0, 31.6070
45.7566, 23.970, 1066.0, 32.6497
45.7892, 23.970, 1068.0, 32.6803
45.8218, 23.970, 950.0, 30.8221
45.8544, 23.970, 1082.0, 32.8938
45.887, 23.970, 1051.0, 32.4191
45.9196, 23.970, 1063.0, 32.6037
45.9522, 23.970, 1059.0, 32.5423
45.9848, 23.970, 1005.0, 31.7017
46.0174, 23.970, 1081.0, 32.8786
46.05, 23.970, 1097.0, 33.1210
46.0826, 23.970, 1060.0, 32.5576
46.1152, 23.970, 1054.0, 32.4654
46.1478, 23.970, 1114.0, 33.3766
46.1804, 23.970, 1046.0, 32.3419
46.213, 23.970, 1047.0, 32.3574
46.2456, 23.970, 1068.0, 32.6803
46.2782, 23.970, 1042.0, 32.2800
46.3108, 23.970, 1113.0, 33.3617
46.3434, 23.970, 1107.0, 33.2716
46.376, 23.970, 1078.0, 32.8329
46.4086, 23.970, 1165.0, 34.1321
46.4412, 23.970, 1229.0, 35.0571
46.4738, 23.970, 1312.0, 36.2215
46.5064, 23.970, 1209.0, 34.7707
46.539, 23.970, 1187.0, 34.4529
46.5716, 23.970, 1330.0, 36.4692
46.6042, 23.970, 1418.0, 37.6563
46.6368, 23.970, 1426.0, 37.7624
46.6694, 23.970, 1436.0, 37.8946
46.702, 23.970, 1554.0, 39.4208
46.7346, 23.970, 1470.0, 38.3406
46.7672, 23.970, 1494.0, 38.6523
46.7998, 23.970, 1523.0, 39.0256
46.8324, 23.970, 1622.0, 40.2741
46.865, 23.970, 1684.0, 41.0366
46.8976, 23.970, 1610.0, 40.1248
46.9302, 23.970, 1660.0, 40.7431
46.9628, 23.970, 1824.0, 42.7083
46.9954, 23.970, 1937.0, 44.0114
47.028, 23.970, 1942.0, 44.0681
47.0606, 23.970, 1938.0, 44.0227
47.0932, 23.970, 1778.0, 42.1663
47.1258, 23.970, 1831.0, 42.7902
47.1584, 23.970, 1642.0, 40.5216
47.191, 23.970, 1516.0, 38.9358
47.2236, 23.970, 1445.0, 38.0132
47.2562, 23.970, 1421.0, 37.6962
47.2888, 23.970, 1334.0, 36.5240
47.3214, 23.970, 1292.0, 35.9444
47.3539, 23.970, 1186.0, 34.4384
47.3865, 23.970, 1236.0, 35.1568
47.4191, 23.970, 1170.0, 34.2053
47.4517, 23.970, 1142.0, 33.7935
47.4843, 23.970, 1067.0, 32.6650
47.5169, 23.970, 1039.0, 32.2335
47.5495, 23.970, 1089.0, 33.0000
47.5821, 23.970, 1051.0, 32.4191
47.6147, 23.970, 1084.0, 32.9242
47.6473, 23.970, 1079.0, 32.8481
47.6799, 23.970, 969.0, 31.1288
47.7125, 23.970, 1013.0, 31.8277
47.7451, 23.970, 993.0, 31.5119
47.7777, 23.970, 1054.0, 32.4654
47.8103, 23.970, 1048.0, 32.3728
47.8429, 23.970, 1008.0, 31.7490
47.8755, 23.970, 1041.0, 32.2645
47.9081, 23.970, 1109.0, 33.3017
47.9407, 23.970, 1163.0, 34.1028
47.9733, 23.970, 1190.0, 34.4964
48.0059, 23.970, 1296.0, 36.0000
48.0385, 23.970, 1286.0, 35.8608
48.0711, 23.970, 1278.0, 35.7491
48.1037, 23.970, 1228.0, 35.0428
48.1363, 23.970, 1189.0, 34.4819
48.1689, 23.970, 1159.0, 34.0441
48.2015, 23.970, 1107.0, 33.2716
48.2341, 23.970, 1070.0, 32.7109
48.2667, 23.970, 999.0, 31.6070
48.2993, 23.970, 974.0, 31.2090
48.3319, 23.970, 970.0, 31.1448
48.3645, 23.970, 1044.0, 32.3110
48.3971, 23.970, 979.0, 31.2890
48.4297, 23.970, 1000.0, 31.6228
48.4623, 23.970, 1028.0, 32.0624
48.4949, 23.970, 949.0, 30.8058
48.5275, 23.970, 973.0, 31.1929
48.5601, 23.970, 957.0, 30.9354
48.5927, 23.970, 995.0, 31.5436
48.6253, 23.970, 1016.0, 31.8748
48.6579, 23.970, 1036.0, 32.1870
48.6905, 23.970, 1000.0, 31.6228
48.7231, 23.970, 1068.0, 32.6803
48.7557, 23.970, 1049.0, 32.3883
48.7883, 23.970, 1041.0, 32.2645
48.8209, 23.970, 1055.0, 32.4808
48.8535, 23.970, 1005.0, 31.7017
48.8861, 23.970, 983.0, 31.3528
48.9187, 23.970, 1057.0, 32.5115
48.9513, 23.970, 1094.0, 33.0757
48.9839, 23.970, 1021.0, 31.9531
49.0165, 23.970, 999.0, 31.6070
49.0491, 23.970, 1030.0, 32.0936
49.0817, 23.970, 1024.0, 32.0000
49.1143, 23.970, 1027.0, 32.0468
49.1469, 23.970, 999.0, 31.6070
49.1795, 23.970, 926.0, 30.4302
49.2121, 23.970, 1021.0, 31.9531
49.2447, 23.970, 1053.0, 32.4500
49.2773, 23.970, 990.0, 31.4643
49.3099, 23.970, 991.0, 31.4802
49.3425, 23.970, 1015.0, 31.8591
49.3751, 23.970, 965.0, 31.0644
49.4077, 23.970, 1002.0, 31.6544
49.4403, 23.970, 966.0, 31.0805
49.4729, 23.970, 938.0, 30.6268
49.5055, 23.970, 922.0, 30.3645
49.5381, 23.970, 980.0, 31.3050
49.5707, 23.970, 895.0, 29.9166
49.6033, 23.970, 884.0, 29.7321
49.6359, 23.970, 886.0, 29.7658
49.6685, 23.970, 877.0, 29.6142
49.7011, 23.970, 934.0, 30.5614
49.7337, 23.970, 893.0, 29.8831
49.7663, 23.970, 924.0, 30.3974
49.7989, 23.970, 917.0, 30.2820
49.8315, 23.970, 911.0, 30.1828
49.8641, 23.970, 904.0, 30.0666
49.8967, 23.970, 862.0, 29.3598
49.9293, 23.970, 895.0, 29.9166
49.9619, 23.970, 877.0, 29.6142
49.9945, 23.970, 853.0, 29.2062